------------ Data File Created By Actigraph GT3X+ ActiLife v6.13.3 Firmware v1.6.0 date format M/d/yyyy at 20 Hz  Filter Nomral -----------
Serial Number: TAS1E00000000
Start Time 13:41:39
Start Date 06/14/2018
Epoch Period (hh:mm:ss) 00:00:00
Download Time 15:03:48
Download Date 06/14/2018
Current Memory Address 0
Current Battery Voltage: 4.19     Mode = 12
--------------------------------------------------
Timestamp,Accelerometer X,Accelerometer Y,Accelerometer Z
06/14/2018 13:41:39.049,-0.234,0.203,-1.078
06/14/2018 13:41:39.099,-0.047,0.078,-1.062
06/14/2018 13:41:39.150,-0.172,-0.016,-1.031
06/14/2018 13:41:39.200,-0.172,-0.094,-0.984
06/14/2018 13:41:39.250,-0.391,-0.219,-0.922
06/14/2018 13:41:39.299,-0.422,-0.547,-0.844
06/14/2018 13:41:39.349,-0.672,-0.281,-0.844
06/14/2018 13:41:39.398,-0.406,-0.469,-0.375
06/14/2018 13:41:39.448,-0.75,-0.656,-0.062
06/14/2018 13:41:39.499,-0.609,-0.422,0.453
06/14/2018 13:41:39.549,-0.359,-0.031,1.172
06/14/2018 13:41:39.598,-0.234,0.047,1.188
06/14/2018 13:41:39.648,-0.359,-0.312,1.359
06/14/2018 13:41:39.698,-0.203,-0.328,1.312
06/14/2018 13:41:39.749,-0.172,-0.547,1
06/14/2018 13:41:39.799,-0.156,-0.844,0.984
06/14/2018 13:41:39.848,0.188,-0.578,0.922
06/14/2018 13:41:39.898,0.062,0.062,1.141
06/14/2018 13:41:39.948,0.047,0.047,1.125
06/14/2018 13:41:39.999,0.062,0.047,1.141
06/14/2018 13:41:40.049,0.047,0.047,1.125
06/14/2018 13:41:40.098,0.062,0.047,1.125
06/14/2018 13:41:40.148,0.062,0.047,1.125
06/14/2018 13:41:40.198,0.062,0.047,1.125
06/14/2018 13:41:40.249,0.062,0.047,1.125
06/14/2018 13:41:40.299,0.062,0.047,1.141
06/14/2018 13:41:40.348,0.062,0.047,1.125
06/14/2018 13:41:40.398,0.047,0.047,1.141
06/14/2018 13:41:40.448,0.062,0.047,1.125
06/14/2018 13:41:40.499,0.062,0.047,1.125
06/14/2018 13:41:40.549,0.062,0.047,1.125
06/14/2018 13:41:40.598,0.047,0.047,1.125
06/14/2018 13:41:40.648,0.062,0.047,1.125
06/14/2018 13:41:40.698,0.047,0.047,1.125
06/14/2018 13:41:40.749,0.062,0.047,1.141
06/14/2018 13:41:40.799,0.062,0.047,1.125
06/14/2018 13:41:40.848,0.062,0.047,1.125
06/14/2018 13:41:40.898,0.062,0.047,1.125
06/14/2018 13:41:40.948,0.062,0.047,1.125
06/14/2018 13:41:40.999,0.062,0.047,1.125
06/14/2018 13:41:41.049,0.062,0.047,1.125
06/14/2018 13:41:41.098,0.062,0.047,1.125
06/14/2018 13:41:41.148,0.062,0.047,1.125
06/14/2018 13:41:41.198,0.062,0.047,1.125
06/14/2018 13:41:41.249,0.062,0.047,1.125
06/14/2018 13:41:41.299,0.062,0.047,1.125
06/14/2018 13:41:41.348,0.062,0.047,1.125
06/14/2018 13:41:41.398,0.062,0.047,1.125
06/14/2018 13:41:41.448,0.062,0.047,1.125
06/14/2018 13:41:41.499,0.062,0.047,1.125
06/14/2018 13:41:41.549,0.062,0.047,1.125
06/14/2018 13:41:41.598,0.062,0.047,1.125
06/14/2018 13:41:41.648,0.062,0.047,1.125
06/14/2018 13:41:41.698,0.062,0.047,1.125
06/14/2018 13:41:41.749,0.062,0.047,1.125
06/14/2018 13:41:41.799,0.062,0.047,1.125
06/14/2018 13:41:41.848,0.062,0.047,1.125
06/14/2018 13:41:41.898,0.062,0.047,1.125
06/14/2018 13:41:41.948,0.062,0.047,1.125
06/14/2018 13:41:41.999,0.062,0.047,1.125
06/14/2018 13:41:42.049,0.062,0.047,1.125
06/14/2018 13:41:42.098,0.062,0.047,1.125
06/14/2018 13:41:42.148,0.062,0.047,1.125
06/14/2018 13:41:42.198,0.062,0.047,1.125
06/14/2018 13:41:42.249,0.062,0.047,1.125
06/14/2018 13:41:42.299,0.062,0.047,1.125
06/14/2018 13:41:42.348,0.062,0.047,1.125
06/14/2018 13:41:42.398,0.062,0.047,1.125
06/14/2018 13:41:42.448,0.062,0.047,1.125
06/14/2018 13:41:42.499,0.062,0.047,1.125
06/14/2018 13:41:42.549,0.062,0.047,1.125
06/14/2018 13:41:42.598,0.062,0.047,1.125
06/14/2018 13:41:42.648,0.062,0.047,1.125
06/14/2018 13:41:42.698,0.062,0.047,1.125
06/14/2018 13:41:42.749,0.062,0.047,1.125
06/14/2018 13:41:42.799,0.062,0.047,1.125
06/14/2018 13:41:42.848,0.062,0.047,1.125
06/14/2018 13:41:42.898,0.062,0.047,1.125
06/14/2018 13:41:42.948,0.062,0.047,1.125
06/14/2018 13:41:42.999,0.062,0.047,1.125
06/14/2018 13:41:43.049,0.062,0.047,1.125
06/14/2018 13:41:43.098,0.062,0.047,1.125
06/14/2018 13:41:43.148,0.062,0.047,1.125
06/14/2018 13:41:43.198,0.062,0.047,1.125
06/14/2018 13:41:43.249,0.062,0.047,1.125
06/14/2018 13:41:43.299,0.062,0.047,1.125
06/14/2018 13:41:43.348,0.062,0.047,1.125
06/14/2018 13:41:43.398,0.062,0.047,1.125
06/14/2018 13:41:43.448,0.062,0.047,1.125
06/14/2018 13:41:43.499,0.062,0.047,1.125
06/14/2018 13:41:43.549,0.062,0.047,1.125
06/14/2018 13:41:43.598,0.062,0.047,1.125
06/14/2018 13:41:43.648,0.062,0.047,1.125
06/14/2018 13:41:43.698,0.062,0.047,1.125
06/14/2018 13:41:43.749,0.062,0.047,1.125
06/14/2018 13:41:43.799,0.062,0.047,1.125
06/14/2018 13:41:43.848,0.062,0.047,1.125
06/14/2018 13:41:43.898,0.062,0.047,1.125
06/14/2018 13:41:43.948,0.062,0.047,1.125
06/14/2018 13:41:43.999,0.062,0.047,1.125
06/14/2018 13:41:44.049,0.062,0.047,1.125
06/14/2018 13:41:44.098,0.062,0.047,1.125
06/14/2018 13:41:44.148,0.062,0.047,1.125
06/14/2018 13:41:44.198,0.062,0.047,1.125
06/14/2018 13:41:44.249,0.062,0.047,1.125
06/14/2018 13:41:44.299,0.062,0.047,1.125
06/14/2018 13:41:44.348,0.062,0.047,1.125
06/14/2018 13:41:44.398,0.062,0.047,1.125
06/14/2018 13:41:44.448,0.062,0.047,1.125
06/14/2018 13:41:44.499,0.062,0.047,1.125
06/14/2018 13:41:44.549,0.062,0.047,1.125
06/14/2018 13:41:44.598,0.062,0.047,1.125
06/14/2018 13:41:44.648,0.062,0.047,1.125
06/14/2018 13:41:44.698,0.062,0.047,1.125
06/14/2018 13:41:44.749,0.062,0.047,1.125
06/14/2018 13:41:44.799,0.062,0.047,1.125
06/14/2018 13:41:44.848,0.062,0.047,1.125
06/14/2018 13:41:44.898,0.062,0.047,1.125
06/14/2018 13:41:44.948,0.062,0.047,1.125
06/14/2018 13:41:44.999,0.062,0.047,1.125
06/14/2018 13:41:45.049,0.062,0.047,1.125
06/14/2018 13:41:45.098,0.062,0.047,1.125
06/14/2018 13:41:45.148,0.062,0.047,1.125
06/14/2018 13:41:45.198,0.062,0.047,1.125
06/14/2018 13:41:45.249,0.062,0.047,1.125
06/14/2018 13:41:45.299,0.062,0.047,1.125
06/14/2018 13:41:45.348,0.062,0.047,1.125
06/14/2018 13:41:45.398,0.062,0.047,1.125
06/14/2018 13:41:45.448,0.062,0.047,1.125
06/14/2018 13:41:45.499,0.062,0.047,1.125
06/14/2018 13:41:45.549,0.062,0.047,1.125
06/14/2018 13:41:45.598,0.062,0.047,1.125
06/14/2018 13:41:45.648,0.062,0.047,1.125
06/14/2018 13:41:45.698,0.062,0.047,1.125
06/14/2018 13:41:45.749,0.062,0.047,1.125
06/14/2018 13:41:45.799,0.062,0.047,1.125
06/14/2018 13:41:45.848,0.062,0.047,1.125
06/14/2018 13:41:45.898,0.062,0.047,1.125
06/14/2018 13:41:45.948,0.062,0.047,1.125
06/14/2018 13:41:45.999,0.062,0.047,1.125
06/14/2018 13:41:46.049,0.062,0.047,1.125
06/14/2018 13:41:46.098,0.062,0.047,1.125
06/14/2018 13:41:46.148,0.062,0.047,1.125
06/14/2018 13:41:46.198,0.062,0.047,1.125
06/14/2018 13:41:46.249,0.062,0.047,1.125
06/14/2018 13:41:46.299,0.062,0.047,1.125
06/14/2018 13:41:46.348,0.062,0.047,1.125
06/14/2018 13:41:46.398,0.062,0.047,1.125
06/14/2018 13:41:46.448,0.062,0.047,1.125
06/14/2018 13:41:46.499,0.062,0.047,1.125
06/14/2018 13:41:46.549,0.062,0.047,1.125
06/14/2018 13:41:46.598,0.062,0.047,1.125
06/14/2018 13:41:46.648,0.062,0.047,1.125
06/14/2018 13:41:46.698,0.062,0.047,1.125
06/14/2018 13:41:46.749,0.062,0.047,1.125
06/14/2018 13:41:46.799,0.062,0.047,1.125
06/14/2018 13:41:46.848,0.062,0.047,1.125
06/14/2018 13:41:46.898,0.062,0.047,1.125
06/14/2018 13:41:46.948,0.062,0.047,1.125
06/14/2018 13:41:46.999,0.062,0.047,1.125
06/14/2018 13:41:47.049,0.062,0.047,1.125
06/14/2018 13:41:47.098,0.062,0.047,1.125
06/14/2018 13:41:47.148,0.062,0.047,1.125
06/14/2018 13:41:47.198,0.062,0.047,1.125
06/14/2018 13:41:47.249,0.062,0.047,1.125
06/14/2018 13:41:47.299,0.062,0.047,1.125
06/14/2018 13:41:47.348,0.062,0.047,1.125
06/14/2018 13:41:47.398,0.062,0.047,1.125
06/14/2018 13:41:47.448,0.062,0.047,1.125
06/14/2018 13:41:47.499,0.062,0.047,1.125
06/14/2018 13:41:47.549,0.062,0.047,1.125
06/14/2018 13:41:47.598,0.062,0.047,1.125
06/14/2018 13:41:47.648,0.062,0.047,1.125
06/14/2018 13:41:47.698,0.062,0.047,1.125
06/14/2018 13:41:47.749,0.062,0.047,1.125
06/14/2018 13:41:47.799,0.062,0.047,1.125
06/14/2018 13:41:47.848,0.062,0.047,1.125
06/14/2018 13:41:47.898,0.062,0.047,1.125
06/14/2018 13:41:47.948,0.062,0.047,1.125
06/14/2018 13:41:47.999,0.062,0.047,1.125
06/14/2018 13:41:48.049,0.062,0.047,1.125
06/14/2018 13:41:48.098,0.062,0.047,1.125
06/14/2018 13:41:48.148,0.062,0.047,1.125
06/14/2018 13:41:48.198,0.062,0.047,1.125
06/14/2018 13:41:48.249,0.062,0.047,1.125
06/14/2018 13:41:48.299,0.062,0.047,1.125
06/14/2018 13:41:48.348,0.062,0.047,1.125
06/14/2018 13:41:48.398,0.062,0.047,1.125
06/14/2018 13:41:48.448,0.062,0.047,1.125
06/14/2018 13:41:48.499,0.062,0.047,1.125
06/14/2018 13:41:48.549,0.062,0.047,1.125
06/14/2018 13:41:48.598,0.062,0.047,1.125
06/14/2018 13:41:48.648,0.062,0.047,1.125
06/14/2018 13:41:48.698,0.062,0.047,1.125
06/14/2018 13:41:48.749,0.062,0.047,1.125
06/14/2018 13:41:48.799,0.062,0.047,1.125
06/14/2018 13:41:48.848,0.062,0.047,1.125
06/14/2018 13:41:48.898,0.062,0.047,1.125
06/14/2018 13:41:48.948,0.062,0.047,1.125
06/14/2018 13:41:48.999,0.062,0.047,1.125
06/14/2018 13:41:49.049,0.062,0.047,1.125
06/14/2018 13:41:49.098,0.062,0.047,1.125
06/14/2018 13:41:49.148,0.062,0.047,1.125
06/14/2018 13:41:49.198,0.062,0.047,1.125
06/14/2018 13:41:49.249,0.062,0.047,1.125
06/14/2018 13:41:49.299,0.062,0.047,1.125
06/14/2018 13:41:49.348,0.062,0.047,1.125
06/14/2018 13:41:49.398,0.062,0.047,1.125
06/14/2018 13:41:49.448,0.062,0.047,1.125
06/14/2018 13:41:49.499,0.062,0.047,1.125
06/14/2018 13:41:49.549,0.062,0.047,1.125
06/14/2018 13:41:49.598,0.062,0.047,1.125
06/14/2018 13:41:49.648,0.062,0.047,1.125
06/14/2018 13:41:49.698,0.062,0.047,1.125
06/14/2018 13:41:49.749,0.062,0.047,1.125
06/14/2018 13:41:49.799,0.062,0.047,1.125
06/14/2018 13:41:49.848,0.062,0.047,1.125
06/14/2018 13:41:49.898,0.062,0.047,1.125
06/14/2018 13:41:49.948,0.062,0.047,1.125
06/14/2018 13:41:49.999,0.062,0.047,1.125
06/14/2018 13:41:50.049,0.062,0.047,1.125
06/14/2018 13:41:50.098,0.062,0.047,1.125
06/14/2018 13:41:50.148,0.062,0.047,1.125
06/14/2018 13:41:50.198,0.062,0.047,1.125
06/14/2018 13:41:50.249,0.062,0.047,1.125
06/14/2018 13:41:50.299,0.062,0.047,1.125
06/14/2018 13:41:50.348,0.062,0.047,1.125
06/14/2018 13:41:50.398,0.062,0.047,1.125
06/14/2018 13:41:50.448,0.062,0.047,1.125
06/14/2018 13:41:50.499,0.062,0.047,1.125
06/14/2018 13:41:50.549,0.062,0.047,1.125
06/14/2018 13:41:50.598,0.062,0.047,1.125
06/14/2018 13:41:50.648,0.062,0.047,1.125
06/14/2018 13:41:50.698,0.062,0.047,1.125
06/14/2018 13:41:50.749,0.062,0.047,1.125
06/14/2018 13:41:50.799,0.062,0.047,1.125
06/14/2018 13:41:50.848,0.062,0.047,1.125
06/14/2018 13:41:50.898,0.062,0.047,1.125
06/14/2018 13:41:50.948,0.062,0.047,1.125
06/14/2018 13:41:50.999,0.062,0.047,1.125
06/14/2018 13:41:51.049,0.062,0.047,1.125
06/14/2018 13:41:51.098,0.062,0.047,1.125
06/14/2018 13:41:51.148,0.062,0.047,1.125
06/14/2018 13:41:51.198,0.062,0.047,1.125
06/14/2018 13:41:51.249,0.062,0.047,1.125
06/14/2018 13:41:51.299,0.062,0.047,1.125
06/14/2018 13:41:51.348,0.062,0.047,1.125
06/14/2018 13:41:51.398,0.062,0.047,1.125
06/14/2018 13:41:51.448,0.062,0.047,1.125
06/14/2018 13:41:51.499,0.062,0.047,1.125
06/14/2018 13:41:51.549,0.062,0.047,1.125
06/14/2018 13:41:51.598,0.062,0.047,1.125
06/14/2018 13:41:51.648,0.062,0.047,1.125
06/14/2018 13:41:51.698,0.062,0.047,1.125
06/14/2018 13:41:51.749,0.062,0.047,1.125
06/14/2018 13:41:51.799,0.062,0.047,1.125
06/14/2018 13:41:51.848,0.062,0.047,1.125
06/14/2018 13:41:51.898,0.062,0.047,1.125
06/14/2018 13:41:51.948,0.062,0.047,1.125
06/14/2018 13:41:51.999,0.062,0.047,1.125
06/14/2018 13:41:52.049,0.062,0.047,1.125
06/14/2018 13:41:52.098,0.062,0.047,1.125
06/14/2018 13:41:52.148,0.062,0.047,1.125
06/14/2018 13:41:52.198,0.062,0.047,1.125
06/14/2018 13:41:52.249,0.062,0.047,1.125
06/14/2018 13:41:52.299,0.062,0.047,1.125
06/14/2018 13:41:52.348,0.062,0.047,1.125
06/14/2018 13:41:52.398,0.062,0.047,1.125
06/14/2018 13:41:52.448,0.062,0.047,1.125
06/14/2018 13:41:52.499,0.062,0.047,1.125
06/14/2018 13:41:52.549,0.062,0.047,1.125
06/14/2018 13:41:52.598,0.062,0.047,1.125
06/14/2018 13:41:52.648,0.062,0.047,1.125
06/14/2018 13:41:52.698,0.062,0.047,1.125
06/14/2018 13:41:52.749,0.062,0.047,1.125
06/14/2018 13:41:52.799,0.062,0.047,1.125
06/14/2018 13:41:52.848,0.062,0.047,1.125
06/14/2018 13:41:52.898,0.062,0.047,1.125
06/14/2018 13:41:52.948,0.062,0.047,1.125
06/14/2018 13:41:52.999,0.062,0.047,1.125
06/14/2018 13:41:53.049,0.062,0.047,1.125
06/14/2018 13:41:53.098,0.062,0.047,1.125
06/14/2018 13:41:53.148,0.062,0.047,1.125
06/14/2018 13:41:53.198,0.062,0.047,1.125
06/14/2018 13:41:53.249,0.062,0.047,1.125
06/14/2018 13:41:53.299,0.062,0.047,1.125
06/14/2018 13:41:53.348,0.062,0.047,1.125
06/14/2018 13:41:53.398,0.062,0.047,1.125
06/14/2018 13:41:53.448,0.062,0.047,1.125
06/14/2018 13:41:53.499,0.062,0.047,1.125
06/14/2018 13:41:53.549,0.062,0.047,1.125
06/14/2018 13:41:53.598,0.062,0.047,1.125
06/14/2018 13:41:53.648,0.062,0.047,1.125
06/14/2018 13:41:53.698,0.062,0.047,1.125
06/14/2018 13:41:53.749,0.062,0.047,1.125
06/14/2018 13:41:53.799,0.062,0.047,1.125
06/14/2018 13:41:53.848,0.062,0.047,1.125
06/14/2018 13:41:53.898,0.062,0.047,1.125
06/14/2018 13:41:53.948,0.062,0.047,1.125
06/14/2018 13:41:53.999,0.062,0.047,1.125
06/14/2018 13:41:54.049,0.062,0.047,1.125
06/14/2018 13:41:54.098,0.062,0.047,1.125
06/14/2018 13:41:54.148,0.062,0.047,1.125
06/14/2018 13:41:54.198,0.062,0.047,1.125
06/14/2018 13:41:54.249,0.062,0.047,1.125
06/14/2018 13:41:54.299,0.062,0.047,1.125
06/14/2018 13:41:54.348,0.062,0.047,1.125
06/14/2018 13:41:54.398,0.062,0.047,1.125
06/14/2018 13:41:54.448,0.062,0.047,1.125
06/14/2018 13:41:54.499,0.062,0.047,1.125
06/14/2018 13:41:54.549,0.062,0.047,1.125
06/14/2018 13:41:54.598,0.062,0.047,1.125
06/14/2018 13:41:54.648,0.062,0.047,1.125
06/14/2018 13:41:54.698,0.062,0.047,1.125
06/14/2018 13:41:54.749,0.062,0.047,1.125
06/14/2018 13:41:54.799,0.062,0.047,1.125
06/14/2018 13:41:54.848,0.062,0.047,1.125
06/14/2018 13:41:54.898,0.062,0.047,1.125
06/14/2018 13:41:54.948,0.062,0.047,1.125
06/14/2018 13:41:54.999,0.062,0.047,1.125
06/14/2018 13:41:55.049,0.062,0.047,1.125
06/14/2018 13:41:55.098,0.062,0.047,1.125
06/14/2018 13:41:55.148,0.062,0.047,1.125
06/14/2018 13:41:55.198,0.062,0.047,1.125
06/14/2018 13:41:55.249,0.062,0.047,1.125
06/14/2018 13:41:55.299,0.062,0.047,1.125
06/14/2018 13:41:55.348,0.062,0.047,1.125
06/14/2018 13:41:55.398,0.062,0.047,1.125
06/14/2018 13:41:55.448,0.062,0.047,1.125
06/14/2018 13:41:55.499,0.062,0.047,1.125
06/14/2018 13:41:55.549,0.062,0.047,1.125
06/14/2018 13:41:55.598,0.062,0.047,1.125
06/14/2018 13:41:55.648,0.062,0.047,1.125
06/14/2018 13:41:55.698,0.062,0.047,1.125
06/14/2018 13:41:55.749,0.062,0.047,1.125
06/14/2018 13:41:55.799,0.062,0.047,1.125
06/14/2018 13:41:55.848,0.062,0.047,1.125
06/14/2018 13:41:55.898,0.062,0.047,1.125
06/14/2018 13:41:55.948,0.062,0.047,1.125
06/14/2018 13:41:55.999,0.062,0.047,1.125
06/14/2018 13:41:56.049,0.062,0.047,1.125
06/14/2018 13:41:56.098,0.062,0.047,1.125
06/14/2018 13:41:56.148,0.062,0.047,1.125
06/14/2018 13:41:56.198,0.062,0.047,1.125
06/14/2018 13:41:56.249,0.062,0.047,1.125
06/14/2018 13:41:56.299,0.062,0.047,1.125
06/14/2018 13:41:56.348,0.062,0.047,1.125
06/14/2018 13:41:56.398,0.062,0.047,1.125
06/14/2018 13:41:56.448,0.062,0.047,1.125
06/14/2018 13:41:56.499,0.062,0.047,1.125
06/14/2018 13:41:56.549,0.062,0.047,1.125
06/14/2018 13:41:56.598,0.062,0.047,1.125
06/14/2018 13:41:56.648,0.062,0.047,1.125
06/14/2018 13:41:56.698,0.062,0.047,1.125
06/14/2018 13:41:56.749,0.062,0.047,1.125
06/14/2018 13:41:56.799,0.062,0.047,1.125
06/14/2018 13:41:56.848,0.062,0.047,1.125
06/14/2018 13:41:56.898,0.062,0.047,1.125
06/14/2018 13:41:56.948,0.062,0.047,1.125
06/14/2018 13:41:56.999,0.062,0.047,1.125
06/14/2018 13:41:57.049,0.062,0.047,1.125
06/14/2018 13:41:57.098,0.062,0.047,1.125
06/14/2018 13:41:57.148,0.062,0.047,1.125
06/14/2018 13:41:57.198,0.062,0.047,1.125
06/14/2018 13:41:57.249,0.062,0.047,1.125
06/14/2018 13:41:57.299,0.062,0.047,1.125
06/14/2018 13:41:57.348,0.062,0.047,1.125
06/14/2018 13:41:57.398,0.062,0.047,1.125
06/14/2018 13:41:57.448,0.062,0.047,1.125
06/14/2018 13:41:57.499,0.062,0.047,1.125
06/14/2018 13:41:57.549,0.062,0.047,1.125
06/14/2018 13:41:57.598,0.062,0.047,1.125
06/14/2018 13:41:57.648,0.062,0.047,1.125
06/14/2018 13:41:57.698,0.062,0.047,1.125
06/14/2018 13:41:57.749,0.062,0.047,1.125
06/14/2018 13:41:57.799,0.062,0.047,1.125
06/14/2018 13:41:57.848,0.062,0.047,1.125
06/14/2018 13:41:57.898,0.062,0.047,1.125
06/14/2018 13:41:57.948,0.062,0.047,1.125
06/14/2018 13:41:57.999,0.062,0.047,1.125
06/14/2018 13:41:58.049,0.062,0.047,1.125
06/14/2018 13:41:58.098,0.062,0.047,1.125
06/14/2018 13:41:58.148,0.062,0.047,1.125
06/14/2018 13:41:58.198,0.062,0.047,1.125
06/14/2018 13:41:58.249,0.062,0.047,1.125
06/14/2018 13:41:58.299,0.062,0.047,1.125
06/14/2018 13:41:58.348,0.062,0.047,1.125
06/14/2018 13:41:58.398,0.062,0.047,1.125
06/14/2018 13:41:58.448,0.062,0.047,1.125
06/14/2018 13:41:58.499,0.062,0.047,1.125
06/14/2018 13:41:58.549,0.062,0.047,1.125
06/14/2018 13:41:58.598,0.062,0.047,1.125
06/14/2018 13:41:58.648,0.062,0.047,1.125
06/14/2018 13:41:58.698,0.062,0.047,1.125
06/14/2018 13:41:58.749,0.062,0.047,1.125
06/14/2018 13:41:58.799,0.062,0.047,1.125
06/14/2018 13:41:58.848,0.062,0.047,1.125
06/14/2018 13:41:58.898,0.062,0.047,1.125
06/14/2018 13:41:58.948,0.062,0.047,1.125
06/14/2018 13:41:58.999,0.062,0.047,1.125
06/14/2018 13:41:59.049,0.062,0.047,1.125
06/14/2018 13:41:59.098,0.062,0.047,1.125
06/14/2018 13:41:59.148,0.062,0.047,1.125
06/14/2018 13:41:59.198,0.062,0.047,1.125
06/14/2018 13:41:59.249,0.062,0.047,1.125
06/14/2018 13:41:59.299,0.062,0.047,1.125
06/14/2018 13:41:59.348,0.062,0.047,1.125
06/14/2018 13:41:59.398,0.062,0.047,1.125
06/14/2018 13:41:59.448,0.062,0.047,1.125
06/14/2018 13:41:59.499,0.062,0.047,1.125
06/14/2018 13:41:59.549,0.062,0.047,1.125
06/14/2018 13:41:59.598,0.062,0.047,1.125
06/14/2018 13:41:59.648,0.062,0.047,1.125
06/14/2018 13:41:59.698,0.062,0.047,1.125
06/14/2018 13:41:59.749,0.062,0.047,1.125
06/14/2018 13:41:59.799,0.062,0.047,1.125
06/14/2018 13:41:59.848,0.062,0.047,1.125
06/14/2018 13:41:59.898,0.062,0.047,1.125
06/14/2018 13:41:59.948,0.062,0.047,1.125
06/14/2018 13:41:59.999,0.062,0.047,1.125
06/14/2018 13:42:00.049,0.062,0.047,1.125
06/14/2018 13:42:00.098,0.062,0.047,1.125
06/14/2018 13:42:00.148,0.062,0.047,1.125
06/14/2018 13:42:00.198,0.062,0.047,1.125
06/14/2018 13:42:00.249,0.062,0.047,1.125
06/14/2018 13:42:00.299,0.062,0.047,1.125
06/14/2018 13:42:00.348,0.062,0.047,1.125
06/14/2018 13:42:00.398,0.062,0.047,1.125
06/14/2018 13:42:00.448,0.062,0.047,1.125
06/14/2018 13:42:00.499,0.062,0.047,1.125
06/14/2018 13:42:00.549,0.062,0.047,1.125
06/14/2018 13:42:00.598,0.062,0.047,1.125
06/14/2018 13:42:00.648,0.062,0.047,1.125
06/14/2018 13:42:00.698,0.062,0.047,1.125
06/14/2018 13:42:00.749,0.062,0.047,1.125
06/14/2018 13:42:00.799,0.062,0.047,1.125
06/14/2018 13:42:00.848,0.062,0.047,1.125
06/14/2018 13:42:00.898,0.062,0.047,1.125
06/14/2018 13:42:00.948,0.062,0.047,1.125
06/14/2018 13:42:00.999,0.062,0.047,1.125
06/14/2018 13:42:01.049,0.062,0.047,1.125
06/14/2018 13:42:01.098,0.062,0.047,1.125
06/14/2018 13:42:01.148,0.062,0.047,1.125
06/14/2018 13:42:01.198,0.062,0.047,1.125
06/14/2018 13:42:01.249,0.062,0.047,1.125
06/14/2018 13:42:01.299,0.062,0.047,1.125
06/14/2018 13:42:01.348,0.062,0.047,1.125
06/14/2018 13:42:01.398,0.062,0.047,1.125
06/14/2018 13:42:01.448,0.062,0.047,1.125
06/14/2018 13:42:01.499,0.062,0.047,1.125
06/14/2018 13:42:01.549,0.062,0.047,1.125
06/14/2018 13:42:01.598,0.062,0.047,1.125
06/14/2018 13:42:01.648,0.062,0.047,1.125
06/14/2018 13:42:01.698,0.062,0.047,1.125
06/14/2018 13:42:01.749,0.062,0.047,1.125
06/14/2018 13:42:01.799,0.062,0.047,1.125
06/14/2018 13:42:01.848,0.062,0.047,1.125
06/14/2018 13:42:01.898,0.062,0.047,1.125
06/14/2018 13:42:01.948,0.062,0.047,1.125
06/14/2018 13:42:01.999,0.062,0.047,1.125
06/14/2018 13:42:02.049,0.062,0.047,1.125
06/14/2018 13:42:02.098,0.062,0.047,1.125
06/14/2018 13:42:02.148,0.062,0.047,1.125
06/14/2018 13:42:02.198,0.062,0.047,1.125
06/14/2018 13:42:02.249,0.062,0.047,1.125
06/14/2018 13:42:02.299,0.062,0.047,1.125
06/14/2018 13:42:02.348,0.062,0.047,1.125
06/14/2018 13:42:02.398,0.062,0.047,1.125
06/14/2018 13:42:02.448,0.062,0.047,1.125
06/14/2018 13:42:02.499,0.062,0.047,1.125
06/14/2018 13:42:02.549,0.062,0.047,1.125
06/14/2018 13:42:02.598,0.062,0.047,1.125
06/14/2018 13:42:02.648,0.062,0.047,1.125
06/14/2018 13:42:02.698,0.062,0.047,1.125
06/14/2018 13:42:02.749,0.062,0.047,1.125
06/14/2018 13:42:02.799,0.062,0.047,1.125
06/14/2018 13:42:02.848,0.062,0.047,1.125
06/14/2018 13:42:02.898,0.062,0.047,1.125
06/14/2018 13:42:02.948,0.062,0.047,1.125
06/14/2018 13:42:02.999,0.062,0.047,1.125
06/14/2018 13:42:03.049,0.062,0.047,1.125
06/14/2018 13:42:03.098,0.062,0.047,1.125
06/14/2018 13:42:03.148,0.062,0.047,1.125
06/14/2018 13:42:03.198,0.062,0.047,1.125
06/14/2018 13:42:03.249,0.062,0.047,1.125
06/14/2018 13:42:03.299,0.062,0.047,1.125
06/14/2018 13:42:03.348,0.062,0.047,1.125
06/14/2018 13:42:03.398,0.062,0.047,1.125
06/14/2018 13:42:03.448,0.062,0.047,1.125
06/14/2018 13:42:03.499,0.062,0.047,1.125
06/14/2018 13:42:03.549,0.062,0.047,1.125
06/14/2018 13:42:03.598,0.062,0.047,1.125
06/14/2018 13:42:03.648,0.062,0.047,1.125
06/14/2018 13:42:03.698,0.062,0.047,1.125
06/14/2018 13:42:03.749,0.062,0.047,1.125
06/14/2018 13:42:03.799,0.062,0.047,1.125
06/14/2018 13:42:03.848,0.062,0.047,1.125
06/14/2018 13:42:03.898,0.062,0.047,1.125
06/14/2018 13:42:03.948,0.062,0.047,1.125
06/14/2018 13:42:03.999,0.062,0.047,1.125
06/14/2018 13:42:04.049,0.062,0.047,1.125
06/14/2018 13:42:04.098,0.062,0.047,1.125
06/14/2018 13:42:04.148,0.062,0.047,1.125
06/14/2018 13:42:04.198,0.062,0.047,1.125
06/14/2018 13:42:04.249,0.062,0.047,1.125
06/14/2018 13:42:04.299,0.062,0.047,1.125
06/14/2018 13:42:04.348,0.062,0.047,1.125
06/14/2018 13:42:04.398,0.062,0.047,1.125
06/14/2018 13:42:04.448,0.062,0.047,1.125
06/14/2018 13:42:04.499,0.062,0.047,1.125
06/14/2018 13:42:04.549,0.062,0.047,1.125
06/14/2018 13:42:04.598,0.062,0.047,1.125
06/14/2018 13:42:04.648,0.062,0.047,1.125
06/14/2018 13:42:04.698,0.062,0.047,1.125
06/14/2018 13:42:04.749,0.062,0.047,1.125
06/14/2018 13:42:04.799,0.062,0.047,1.125
06/14/2018 13:42:04.848,0.062,0.047,1.125
06/14/2018 13:42:04.898,0.062,0.047,1.125
06/14/2018 13:42:04.948,0.062,0.047,1.125
06/14/2018 13:42:04.999,0.062,0.047,1.125
06/14/2018 13:42:05.049,0.062,0.047,1.125
06/14/2018 13:42:05.098,0.062,0.047,1.125
06/14/2018 13:42:05.148,0.062,0.047,1.125
06/14/2018 13:42:05.198,0.062,0.047,1.125
06/14/2018 13:42:05.249,0.062,0.047,1.125
06/14/2018 13:42:05.299,0.062,0.047,1.125
06/14/2018 13:42:05.348,0.062,0.047,1.125
06/14/2018 13:42:05.398,0.062,0.047,1.125
06/14/2018 13:42:05.448,0.062,0.047,1.125
06/14/2018 13:42:05.499,0.062,0.047,1.125
06/14/2018 13:42:05.549,0.062,0.047,1.125
06/14/2018 13:42:05.598,0.062,0.047,1.125
06/14/2018 13:42:05.648,0.062,0.047,1.125
06/14/2018 13:42:05.698,0.062,0.047,1.125
06/14/2018 13:42:05.749,0.062,0.047,1.125
06/14/2018 13:42:05.799,0.062,0.047,1.125
06/14/2018 13:42:05.848,0.062,0.047,1.125
06/14/2018 13:42:05.898,0.062,0.047,1.125
06/14/2018 13:42:05.948,0.062,0.047,1.125
06/14/2018 13:42:05.999,0.062,0.047,1.125
06/14/2018 13:42:06.049,0.062,0.047,1.125
06/14/2018 13:42:06.098,0.062,0.047,1.125
06/14/2018 13:42:06.148,0.062,0.047,1.125
06/14/2018 13:42:06.198,0.062,0.047,1.125
06/14/2018 13:42:06.249,0.047,0.047,1.125
06/14/2018 13:42:06.299,0.047,0.047,1.125
06/14/2018 13:42:06.348,0.047,0.047,1.125
06/14/2018 13:42:06.398,0.047,0.047,1.125
06/14/2018 13:42:06.448,0.047,0.047,1.125
06/14/2018 13:42:06.499,0.047,0.047,1.125
06/14/2018 13:42:06.549,0.047,0.047,1.125
06/14/2018 13:42:06.598,0.047,0.047,1.125
06/14/2018 13:42:06.648,0.047,0.047,1.125
06/14/2018 13:42:06.698,0.047,0.047,1.125
06/14/2018 13:42:06.749,0.047,0.047,1.125
06/14/2018 13:42:06.799,0.047,0.047,1.125
06/14/2018 13:42:06.848,0.047,0.047,1.125
06/14/2018 13:42:06.898,0.047,0.047,1.125
06/14/2018 13:42:06.948,0.047,0.047,1.125
06/14/2018 13:42:06.999,0.047,0.047,1.125
06/14/2018 13:42:07.049,0.047,0.047,1.125
06/14/2018 13:42:07.098,0.047,0.047,1.125
06/14/2018 13:42:07.148,0.047,0.047,1.125
06/14/2018 13:42:07.198,0.047,0.047,1.125
06/14/2018 13:42:07.249,0.047,0.047,1.125
06/14/2018 13:42:07.299,0.047,0.047,1.125
06/14/2018 13:42:07.348,0.047,0.047,1.125
06/14/2018 13:42:07.398,0.047,0.047,1.125
06/14/2018 13:42:07.448,0.047,0.047,1.125
06/14/2018 13:42:07.499,0.047,0.047,1.125
06/14/2018 13:42:07.549,0.047,0.047,1.125
06/14/2018 13:42:07.598,0.047,0.047,1.125
06/14/2018 13:42:07.648,0.047,0.047,1.125
06/14/2018 13:42:07.698,0.047,0.047,1.125
06/14/2018 13:42:07.749,0.047,0.047,1.125
06/14/2018 13:42:07.799,0.047,0.047,1.125
06/14/2018 13:42:07.848,0.047,0.047,1.125
06/14/2018 13:42:07.898,0.047,0.047,1.125
06/14/2018 13:42:07.948,0.047,0.047,1.125
06/14/2018 13:42:07.999,0.047,0.047,1.125
06/14/2018 13:42:08.049,0.047,0.047,1.125
06/14/2018 13:42:08.098,0.047,0.047,1.125
06/14/2018 13:42:08.148,0.047,0.047,1.125
06/14/2018 13:42:08.198,0.047,0.047,1.125
06/14/2018 13:42:08.249,0.047,0.047,1.125
06/14/2018 13:42:08.299,0.047,0.047,1.125
06/14/2018 13:42:08.348,0.047,0.047,1.125
06/14/2018 13:42:08.398,0.047,0.047,1.125
06/14/2018 13:42:08.448,0.047,0.047,1.125
06/14/2018 13:42:08.499,0.047,0.047,1.125
06/14/2018 13:42:08.549,0.047,0.047,1.125
06/14/2018 13:42:08.598,0.047,0.047,1.125
06/14/2018 13:42:08.648,0.047,0.047,1.125
06/14/2018 13:42:08.698,0.047,0.047,1.125
06/14/2018 13:42:08.749,0.047,0.047,1.125
06/14/2018 13:42:08.799,0.047,0.047,1.125
06/14/2018 13:42:08.848,0.047,0.047,1.125
06/14/2018 13:42:08.898,0.047,0.047,1.125
06/14/2018 13:42:08.948,0.047,0.047,1.125
06/14/2018 13:42:08.999,0.047,0.047,1.125
06/14/2018 13:42:09.049,0.047,0.047,1.125
06/14/2018 13:42:09.098,0.047,0.047,1.125
06/14/2018 13:42:09.148,0.047,0.047,1.125
06/14/2018 13:42:09.198,0.047,0.047,1.125
06/14/2018 13:42:09.249,0.047,0.047,1.125
06/14/2018 13:42:09.299,0.047,0.047,1.125
06/14/2018 13:42:09.348,0.047,0.047,1.125
06/14/2018 13:42:09.398,0.047,0.047,1.125
06/14/2018 13:42:09.448,0.047,0.047,1.125
06/14/2018 13:42:09.499,0.047,0.047,1.125
06/14/2018 13:42:09.549,0.047,0.047,1.125
06/14/2018 13:42:09.598,0.047,0.047,1.125
06/14/2018 13:42:09.648,0.047,0.047,1.125
06/14/2018 13:42:09.698,0.047,0.047,1.125
06/14/2018 13:42:09.749,0.047,0.047,1.125
06/14/2018 13:42:09.799,0.047,0.047,1.125
06/14/2018 13:42:09.848,0.047,0.047,1.125
06/14/2018 13:42:09.898,0.047,0.047,1.125
06/14/2018 13:42:09.948,0.047,0.047,1.125
06/14/2018 13:42:09.999,0.047,0.047,1.125
06/14/2018 13:42:10.049,0.047,0.047,1.125
06/14/2018 13:42:10.098,0.047,0.047,1.125
06/14/2018 13:42:10.148,0.047,0.047,1.125
06/14/2018 13:42:10.198,0.047,0.047,1.125
06/14/2018 13:42:10.249,0.047,0.047,1.125
06/14/2018 13:42:10.299,0.047,0.047,1.125
06/14/2018 13:42:10.348,0.047,0.047,1.125
06/14/2018 13:42:10.398,0.047,0.047,1.125
06/14/2018 13:42:10.448,0.047,0.047,1.125
06/14/2018 13:42:10.499,0.047,0.047,1.125
06/14/2018 13:42:10.549,0.047,0.047,1.125
06/14/2018 13:42:10.598,0.047,0.047,1.125
06/14/2018 13:42:10.648,0.047,0.047,1.125
06/14/2018 13:42:10.698,0.047,0.047,1.125
06/14/2018 13:42:10.749,0.047,0.047,1.125
06/14/2018 13:42:10.799,0.047,0.047,1.125
06/14/2018 13:42:10.848,0.047,0.047,1.125
06/14/2018 13:42:10.898,0.047,0.047,1.125
06/14/2018 13:42:10.948,0.047,0.047,1.125
06/14/2018 13:42:10.999,0.047,0.047,1.125
06/14/2018 13:42:11.049,0.047,0.047,1.125
06/14/2018 13:42:11.098,0.047,0.047,1.125
06/14/2018 13:42:11.148,0.047,0.047,1.125
06/14/2018 13:42:11.198,0.047,0.047,1.125
06/14/2018 13:42:11.249,0.047,0.047,1.125
06/14/2018 13:42:11.299,0.047,0.047,1.125
06/14/2018 13:42:11.348,0.047,0.047,1.125
06/14/2018 13:42:11.398,0.047,0.047,1.125
06/14/2018 13:42:11.448,0.047,0.047,1.125
06/14/2018 13:42:11.499,0.047,0.047,1.125
06/14/2018 13:42:11.549,0.047,0.047,1.125
06/14/2018 13:42:11.598,0.047,0.047,1.125
06/14/2018 13:42:11.648,0.047,0.047,1.125
06/14/2018 13:42:11.698,0.047,0.047,1.125
06/14/2018 13:42:11.749,0.047,0.047,1.125
06/14/2018 13:42:11.799,0.047,0.047,1.125
06/14/2018 13:42:11.848,0.047,0.047,1.125
06/14/2018 13:42:11.898,0.047,0.047,1.125
06/14/2018 13:42:11.948,0.047,0.047,1.125
06/14/2018 13:42:11.999,0.047,0.047,1.125
06/14/2018 13:42:12.049,0.047,0.047,1.125
06/14/2018 13:42:12.098,0.047,0.047,1.125
06/14/2018 13:42:12.148,0.047,0.047,1.125
06/14/2018 13:42:12.198,0.047,0.047,1.125
06/14/2018 13:42:12.249,0.047,0.047,1.125
06/14/2018 13:42:12.299,0.047,0.047,1.125
06/14/2018 13:42:12.348,0.047,0.047,1.125
06/14/2018 13:42:12.398,0.047,0.047,1.125
06/14/2018 13:42:12.448,0.047,0.047,1.125
06/14/2018 13:42:12.499,0.047,0.047,1.125
06/14/2018 13:42:12.549,0.047,0.047,1.125
06/14/2018 13:42:12.598,0.047,0.047,1.125
06/14/2018 13:42:12.648,0.047,0.047,1.125
06/14/2018 13:42:12.698,0.047,0.047,1.125
06/14/2018 13:42:12.749,0.047,0.047,1.125
06/14/2018 13:42:12.799,0.047,0.047,1.125
06/14/2018 13:42:12.848,0.047,0.047,1.125
06/14/2018 13:42:12.898,0.047,0.047,1.125
06/14/2018 13:42:12.948,0.047,0.047,1.125
06/14/2018 13:42:12.999,0.047,0.047,1.125
06/14/2018 13:42:13.049,0.047,0.047,1.125
06/14/2018 13:42:13.098,0.047,0.047,1.125
06/14/2018 13:42:13.148,0.047,0.047,1.125
06/14/2018 13:42:13.198,0.047,0.047,1.125
06/14/2018 13:42:13.249,0.047,0.047,1.125
06/14/2018 13:42:13.299,0.047,0.047,1.125
06/14/2018 13:42:13.348,0.047,0.047,1.125
06/14/2018 13:42:13.398,0.047,0.047,1.125
06/14/2018 13:42:13.448,0.047,0.047,1.125
06/14/2018 13:42:13.499,0.047,0.047,1.125
06/14/2018 13:42:13.549,0.047,0.047,1.125
06/14/2018 13:42:13.598,0.047,0.047,1.125
06/14/2018 13:42:13.648,0.047,0.047,1.125
06/14/2018 13:42:13.698,0.047,0.047,1.125
06/14/2018 13:42:13.749,0.047,0.047,1.125
06/14/2018 13:42:13.799,0.047,0.047,1.125
06/14/2018 13:42:13.848,0.047,0.047,1.125
06/14/2018 13:42:13.898,0.047,0.047,1.125
06/14/2018 13:42:13.948,0.047,0.047,1.125
06/14/2018 13:42:13.999,0.047,0.047,1.125
06/14/2018 13:42:14.049,0.047,0.047,1.125
06/14/2018 13:42:14.098,0.047,0.047,1.125
06/14/2018 13:42:14.148,0.047,0.047,1.125
06/14/2018 13:42:14.198,0.047,0.047,1.125
06/14/2018 13:42:14.249,0.047,0.047,1.125
06/14/2018 13:42:14.299,0.047,0.047,1.125
06/14/2018 13:42:14.348,0.047,0.047,1.125
06/14/2018 13:42:14.398,0.047,0.047,1.125
06/14/2018 13:42:14.448,0.047,0.047,1.125
06/14/2018 13:42:14.499,0.047,0.047,1.125
06/14/2018 13:42:14.549,0.047,0.047,1.125
06/14/2018 13:42:14.598,0.047,0.047,1.125
06/14/2018 13:42:14.648,0.047,0.047,1.125
06/14/2018 13:42:14.698,0.047,0.047,1.125
06/14/2018 13:42:14.749,0.047,0.047,1.125
06/14/2018 13:42:14.799,0.047,0.047,1.125
06/14/2018 13:42:14.848,0.047,0.047,1.125
06/14/2018 13:42:14.898,0.047,0.047,1.125
06/14/2018 13:42:14.948,0.047,0.047,1.125
06/14/2018 13:42:14.999,0.047,0.047,1.125
06/14/2018 13:42:15.049,0.047,0.047,1.125
06/14/2018 13:42:15.098,0.047,0.047,1.125
06/14/2018 13:42:15.148,0.047,0.047,1.125
06/14/2018 13:42:15.198,0.047,0.047,1.125
06/14/2018 13:42:15.249,0.047,0.047,1.125
06/14/2018 13:42:15.299,0.047,0.047,1.125
06/14/2018 13:42:15.348,0.047,0.047,1.125
06/14/2018 13:42:15.398,0.047,0.047,1.125
06/14/2018 13:42:15.448,0.047,0.047,1.125
06/14/2018 13:42:15.499,0.047,0.047,1.125
06/14/2018 13:42:15.549,0.047,0.047,1.125
06/14/2018 13:42:15.598,0.047,0.047,1.125
06/14/2018 13:42:15.648,0.047,0.047,1.125
06/14/2018 13:42:15.698,0.047,0.047,1.125
06/14/2018 13:42:15.749,0.047,0.047,1.125
06/14/2018 13:42:15.799,0.047,0.047,1.125
06/14/2018 13:42:15.848,0.047,0.047,1.125
06/14/2018 13:42:15.898,0.047,0.047,1.125
06/14/2018 13:42:15.948,0.047,0.047,1.125
06/14/2018 13:42:15.999,0.047,0.047,1.125
06/14/2018 13:42:16.049,0.047,0.047,1.125
06/14/2018 13:42:16.098,0.047,0.047,1.125
06/14/2018 13:42:16.148,0.047,0.047,1.125
06/14/2018 13:42:16.198,0.047,0.047,1.125
06/14/2018 13:42:16.249,0.047,0.047,1.125
06/14/2018 13:42:16.299,0.047,0.047,1.125
06/14/2018 13:42:16.348,0.047,0.047,1.125
06/14/2018 13:42:16.398,0.047,0.047,1.125
06/14/2018 13:42:16.448,0.047,0.047,1.125
06/14/2018 13:42:16.499,0.047,0.047,1.125
06/14/2018 13:42:16.549,0.047,0.047,1.125
06/14/2018 13:42:16.598,0.047,0.047,1.125
06/14/2018 13:42:16.648,0.047,0.047,1.125
06/14/2018 13:42:16.698,0.047,0.047,1.125
06/14/2018 13:42:16.749,0.047,0.047,1.125
06/14/2018 13:42:16.799,0.047,0.047,1.125
06/14/2018 13:42:16.848,0.047,0.047,1.125
06/14/2018 13:42:16.898,0.047,0.047,1.125
06/14/2018 13:42:16.948,0.047,0.047,1.125
06/14/2018 13:42:16.999,0.047,0.047,1.125
06/14/2018 13:42:17.049,0.047,0.047,1.125
06/14/2018 13:42:17.098,0.047,0.047,1.125
06/14/2018 13:42:17.148,0.047,0.047,1.125
06/14/2018 13:42:17.198,0.047,0.047,1.125
06/14/2018 13:42:17.249,0.047,0.047,1.125
06/14/2018 13:42:17.299,0.047,0.047,1.125
06/14/2018 13:42:17.348,0.047,0.047,1.125
06/14/2018 13:42:17.398,0.047,0.047,1.125
06/14/2018 13:42:17.448,0.047,0.047,1.125
06/14/2018 13:42:17.499,0.047,0.047,1.125
06/14/2018 13:42:17.549,0.047,0.047,1.125
06/14/2018 13:42:17.598,0.047,0.047,1.125
06/14/2018 13:42:17.648,0.047,0.047,1.125
06/14/2018 13:42:17.698,0.047,0.047,1.125
06/14/2018 13:42:17.749,0.047,0.047,1.125
06/14/2018 13:42:17.799,0.047,0.047,1.125
06/14/2018 13:42:17.848,0.047,0.047,1.125
06/14/2018 13:42:17.898,0.047,0.047,1.125
06/14/2018 13:42:17.948,0.047,0.047,1.125
06/14/2018 13:42:17.999,0.047,0.047,1.125
06/14/2018 13:42:18.049,0.047,0.047,1.125
06/14/2018 13:42:18.098,0.047,0.047,1.125
06/14/2018 13:42:18.148,0.047,0.047,1.125
06/14/2018 13:42:18.198,0.047,0.047,1.125
06/14/2018 13:42:18.249,0.047,0.047,1.125
06/14/2018 13:42:18.299,0.047,0.047,1.125
06/14/2018 13:42:18.348,0.047,0.047,1.125
06/14/2018 13:42:18.398,0.047,0.047,1.125
06/14/2018 13:42:18.448,0.047,0.047,1.125
06/14/2018 13:42:18.499,0.047,0.047,1.125
06/14/2018 13:42:18.549,0.047,0.047,1.125
06/14/2018 13:42:18.598,0.047,0.047,1.125
06/14/2018 13:42:18.648,0.047,0.047,1.125
06/14/2018 13:42:18.698,0.047,0.047,1.125
06/14/2018 13:42:18.749,0.047,0.047,1.125
06/14/2018 13:42:18.799,0.047,0.047,1.125
06/14/2018 13:42:18.848,0.047,0.047,1.125
06/14/2018 13:42:18.898,0.047,0.047,1.125
06/14/2018 13:42:18.948,0.062,0.047,1.125
06/14/2018 13:42:18.999,0.062,0.047,1.125
06/14/2018 13:42:19.049,0.062,0.047,1.125
06/14/2018 13:42:19.098,0.062,0.047,1.125
06/14/2018 13:42:19.148,0.062,0.047,1.125
06/14/2018 13:42:19.198,0.062,0.047,1.125
06/14/2018 13:42:19.249,0.062,0.047,1.125
06/14/2018 13:42:19.299,0.062,0.047,1.125
06/14/2018 13:42:19.348,0.062,0.047,1.125
06/14/2018 13:42:19.398,0.062,0.047,1.125
06/14/2018 13:42:19.448,0.062,0.047,1.125
06/14/2018 13:42:19.499,0.062,0.047,1.125
06/14/2018 13:42:19.549,0.062,0.047,1.125
06/14/2018 13:42:19.598,0.062,0.047,1.125
06/14/2018 13:42:19.648,0.062,0.047,1.125
06/14/2018 13:42:19.698,0.062,0.047,1.125
06/14/2018 13:42:19.749,0.062,0.047,1.125
06/14/2018 13:42:19.799,0.062,0.047,1.125
06/14/2018 13:42:19.848,0.062,0.047,1.125
06/14/2018 13:42:19.898,0.062,0.047,1.125
06/14/2018 13:42:19.948,0.062,0.047,1.125
06/14/2018 13:42:19.999,0.062,0.047,1.125
06/14/2018 13:42:20.049,0.062,0.047,1.125
06/14/2018 13:42:20.098,0.062,0.047,1.125
06/14/2018 13:42:20.148,0.062,0.047,1.125
06/14/2018 13:42:20.198,0.062,0.047,1.125
06/14/2018 13:42:20.249,0.062,0.047,1.125
06/14/2018 13:42:20.299,0.062,0.047,1.125
06/14/2018 13:42:20.348,0.062,0.047,1.125
06/14/2018 13:42:20.398,0.062,0.047,1.125
06/14/2018 13:42:20.448,0.062,0.047,1.125
06/14/2018 13:42:20.499,0.062,0.047,1.125
06/14/2018 13:42:20.549,0.062,0.047,1.125
06/14/2018 13:42:20.598,0.062,0.047,1.125
06/14/2018 13:42:20.648,0.062,0.047,1.125
06/14/2018 13:42:20.698,0.062,0.047,1.125
06/14/2018 13:42:20.749,0.062,0.047,1.125
06/14/2018 13:42:20.799,0.062,0.047,1.125
06/14/2018 13:42:20.848,0.062,0.047,1.125
06/14/2018 13:42:20.898,0.062,0.047,1.125
06/14/2018 13:42:20.948,0.062,0.047,1.125
06/14/2018 13:42:20.999,0.062,0.047,1.125
06/14/2018 13:42:21.049,0.062,0.047,1.125
06/14/2018 13:42:21.098,0.062,0.047,1.125
06/14/2018 13:42:21.148,0.062,0.047,1.125
06/14/2018 13:42:21.198,0.062,0.047,1.125
06/14/2018 13:42:21.249,0.062,0.047,1.125
06/14/2018 13:42:21.299,0.062,0.047,1.125
06/14/2018 13:42:21.348,0.062,0.047,1.125
06/14/2018 13:42:21.398,0.062,0.047,1.125
06/14/2018 13:42:21.448,0.062,0.047,1.125
06/14/2018 13:42:21.499,0.062,0.047,1.125
06/14/2018 13:42:21.549,0.062,0.047,1.125
06/14/2018 13:42:21.598,0.062,0.047,1.125
06/14/2018 13:42:21.648,0.062,0.047,1.125
06/14/2018 13:42:21.698,0.062,0.047,1.125
06/14/2018 13:42:21.749,0.062,0.047,1.125
06/14/2018 13:42:21.799,0.062,0.047,1.125
06/14/2018 13:42:21.848,0.062,0.047,1.125
06/14/2018 13:42:21.898,0.062,0.047,1.125
06/14/2018 13:42:21.948,0.062,0.047,1.125
06/14/2018 13:42:21.999,0.062,0.047,1.125
06/14/2018 13:42:22.049,0.062,0.047,1.125
06/14/2018 13:42:22.098,0.062,0.047,1.125
06/14/2018 13:42:22.148,0.062,0.047,1.125
06/14/2018 13:42:22.198,0.062,0.047,1.125
06/14/2018 13:42:22.249,0.062,0.047,1.125
06/14/2018 13:42:22.299,0.062,0.047,1.125
06/14/2018 13:42:22.348,0.062,0.047,1.125
06/14/2018 13:42:22.398,0.062,0.047,1.125
06/14/2018 13:42:22.448,0.062,0.047,1.125
06/14/2018 13:42:22.499,0.062,0.047,1.125
06/14/2018 13:42:22.549,0.062,0.047,1.125
06/14/2018 13:42:22.598,0.062,0.047,1.125
06/14/2018 13:42:22.648,0.062,0.047,1.125
06/14/2018 13:42:22.698,0.062,0.047,1.125
06/14/2018 13:42:22.749,0.062,0.047,1.125
06/14/2018 13:42:22.799,0.062,0.047,1.125
06/14/2018 13:42:22.848,0.062,0.047,1.125
06/14/2018 13:42:22.898,0.062,0.047,1.125
06/14/2018 13:42:22.948,0.062,0.047,1.125
06/14/2018 13:42:22.999,0.062,0.047,1.125
06/14/2018 13:42:23.049,0.062,0.047,1.125
06/14/2018 13:42:23.098,0.062,0.047,1.125
06/14/2018 13:42:23.148,0.062,0.047,1.125
06/14/2018 13:42:23.198,0.062,0.047,1.125
06/14/2018 13:42:23.249,0.062,0.047,1.125
06/14/2018 13:42:23.299,0.062,0.047,1.125
06/14/2018 13:42:23.348,0.062,0.047,1.125
06/14/2018 13:42:23.398,0.062,0.047,1.125
06/14/2018 13:42:23.448,0.062,0.047,1.125
06/14/2018 13:42:23.499,0.062,0.047,1.125
06/14/2018 13:42:23.549,0.062,0.047,1.125
06/14/2018 13:42:23.598,0.062,0.047,1.125
06/14/2018 13:42:23.648,0.062,0.047,1.125
06/14/2018 13:42:23.698,0.062,0.047,1.125
06/14/2018 13:42:23.749,0.062,0.047,1.125
06/14/2018 13:42:23.799,0.062,0.047,1.125
06/14/2018 13:42:23.848,0.062,0.047,1.125
06/14/2018 13:42:23.898,0.062,0.047,1.125
06/14/2018 13:42:23.948,0.062,0.047,1.125
06/14/2018 13:42:23.999,0.062,0.047,1.125
06/14/2018 13:42:24.049,0.062,0.047,1.125
06/14/2018 13:42:24.098,0.062,0.047,1.125
06/14/2018 13:42:24.148,0.062,0.047,1.125
06/14/2018 13:42:24.198,0.062,0.047,1.125
06/14/2018 13:42:24.249,0.062,0.047,1.125
06/14/2018 13:42:24.299,0.062,0.047,1.125
06/14/2018 13:42:24.348,0.062,0.047,1.125
06/14/2018 13:42:24.398,0.062,0.047,1.125
06/14/2018 13:42:24.448,0.062,0.047,1.125
06/14/2018 13:42:24.499,0.062,0.047,1.125
06/14/2018 13:42:24.549,0.062,0.047,1.125
06/14/2018 13:42:24.598,0.062,0.047,1.125
06/14/2018 13:42:24.648,0.062,0.047,1.125
06/14/2018 13:42:24.698,0.062,0.047,1.125
06/14/2018 13:42:24.749,0.062,0.047,1.125
06/14/2018 13:42:24.799,0.062,0.047,1.125
06/14/2018 13:42:24.848,0.062,0.047,1.125
06/14/2018 13:42:24.898,0.062,0.047,1.125
06/14/2018 13:42:24.948,0.062,0.047,1.125
06/14/2018 13:42:24.999,0.062,0.047,1.125
06/14/2018 13:42:25.049,0.062,0.047,1.125
06/14/2018 13:42:25.098,0.062,0.047,1.125
06/14/2018 13:42:25.148,0.062,0.047,1.125
06/14/2018 13:42:25.198,0.062,0.047,1.125
06/14/2018 13:42:25.249,0.062,0.047,1.125
06/14/2018 13:42:25.299,0.062,0.047,1.125
06/14/2018 13:42:25.348,0.062,0.047,1.125
06/14/2018 13:42:25.398,0.062,0.047,1.125
06/14/2018 13:42:25.448,0.062,0.047,1.125
06/14/2018 13:42:25.499,0.062,0.047,1.125
06/14/2018 13:42:25.549,0.062,0.047,1.125
06/14/2018 13:42:25.598,0.062,0.047,1.125
06/14/2018 13:42:25.648,0.062,0.047,1.125
06/14/2018 13:42:25.698,0.062,0.047,1.125
06/14/2018 13:42:25.749,0.062,0.047,1.125
06/14/2018 13:42:25.799,0.062,0.047,1.125
06/14/2018 13:42:25.848,0.062,0.047,1.125
06/14/2018 13:42:25.898,0.062,0.047,1.125
06/14/2018 13:42:25.948,0.062,0.047,1.125
06/14/2018 13:42:25.999,0.062,0.047,1.125
06/14/2018 13:42:26.049,0.062,0.047,1.125
06/14/2018 13:42:26.098,0.062,0.047,1.125
06/14/2018 13:42:26.148,0.062,0.047,1.125
06/14/2018 13:42:26.198,0.062,0.047,1.125
06/14/2018 13:42:26.249,0.062,0.047,1.125
06/14/2018 13:42:26.299,0.062,0.047,1.125
06/14/2018 13:42:26.348,0.062,0.047,1.125
06/14/2018 13:42:26.398,0.062,0.047,1.125
06/14/2018 13:42:26.448,0.062,0.047,1.125
06/14/2018 13:42:26.499,0.062,0.047,1.125
06/14/2018 13:42:26.549,0.062,0.047,1.125
06/14/2018 13:42:26.598,0.062,0.047,1.125
06/14/2018 13:42:26.648,0.062,0.047,1.125
06/14/2018 13:42:26.698,0.062,0.047,1.125
06/14/2018 13:42:26.749,0.062,0.047,1.125
06/14/2018 13:42:26.799,0.062,0.047,1.125
06/14/2018 13:42:26.848,0.062,0.047,1.125
06/14/2018 13:42:26.898,0.062,0.047,1.125
06/14/2018 13:42:26.948,0.062,0.047,1.125
06/14/2018 13:42:26.999,0.062,0.047,1.125
06/14/2018 13:42:27.049,0.062,0.047,1.125
06/14/2018 13:42:27.098,0.062,0.047,1.125
06/14/2018 13:42:27.148,0.062,0.047,1.125
06/14/2018 13:42:27.198,0.062,0.047,1.125
06/14/2018 13:42:27.249,0.062,0.047,1.125
06/14/2018 13:42:27.299,0.062,0.047,1.125
06/14/2018 13:42:27.348,0.062,0.047,1.125
06/14/2018 13:42:27.398,0.062,0.047,1.125
06/14/2018 13:42:27.448,0.062,0.047,1.125
06/14/2018 13:42:27.499,0.062,0.047,1.125
06/14/2018 13:42:27.549,0.062,0.047,1.125
06/14/2018 13:42:27.598,0.062,0.047,1.125
06/14/2018 13:42:27.648,0.062,0.047,1.125
06/14/2018 13:42:27.698,0.062,0.047,1.125
06/14/2018 13:42:27.749,0.062,0.047,1.125
06/14/2018 13:42:27.799,0.062,0.047,1.125
06/14/2018 13:42:27.848,0.062,0.047,1.125
06/14/2018 13:42:27.898,0.062,0.047,1.125
06/14/2018 13:42:27.948,0.062,0.047,1.125
06/14/2018 13:42:27.999,0.062,0.047,1.125
06/14/2018 13:42:28.049,0.062,0.047,1.125
06/14/2018 13:42:28.098,0.062,0.047,1.125
06/14/2018 13:42:28.148,0.062,0.047,1.125
06/14/2018 13:42:28.198,0.062,0.047,1.125
06/14/2018 13:42:28.249,0.062,0.047,1.125
06/14/2018 13:42:28.299,0.062,0.047,1.125
06/14/2018 13:42:28.348,0.062,0.047,1.125
06/14/2018 13:42:28.398,0.062,0.047,1.125
06/14/2018 13:42:28.448,0.062,0.047,1.125
06/14/2018 13:42:28.499,0.062,0.047,1.125
06/14/2018 13:42:28.549,0.062,0.047,1.125
06/14/2018 13:42:28.598,0.062,0.047,1.125
06/14/2018 13:42:28.648,0.062,0.047,1.125
06/14/2018 13:42:28.698,0.062,0.047,1.125
06/14/2018 13:42:28.749,0.062,0.047,1.125
06/14/2018 13:42:28.799,0.062,0.047,1.125
06/14/2018 13:42:28.848,0.062,0.047,1.125
06/14/2018 13:42:28.898,0.062,0.047,1.125
06/14/2018 13:42:28.948,0.062,0.047,1.125
06/14/2018 13:42:28.999,0.062,0.047,1.125
06/14/2018 13:42:29.049,0.062,0.047,1.125
06/14/2018 13:42:29.098,0.062,0.047,1.125
06/14/2018 13:42:29.148,0.062,0.047,1.125
06/14/2018 13:42:29.198,0.062,0.047,1.125
06/14/2018 13:42:29.249,0.062,0.047,1.125
06/14/2018 13:42:29.299,0.062,0.047,1.125
06/14/2018 13:42:29.348,0.062,0.047,1.125
06/14/2018 13:42:29.398,0.062,0.047,1.125
06/14/2018 13:42:29.448,0.062,0.047,1.125
06/14/2018 13:42:29.499,0.062,0.047,1.125
06/14/2018 13:42:29.549,0.062,0.047,1.125
06/14/2018 13:42:29.598,0.062,0.047,1.125
06/14/2018 13:42:29.648,0.062,0.047,1.125
06/14/2018 13:42:29.698,0.062,0.047,1.125
06/14/2018 13:42:29.749,0.062,0.047,1.125
06/14/2018 13:42:29.799,0.062,0.047,1.125
06/14/2018 13:42:29.848,0.062,0.047,1.125
06/14/2018 13:42:29.898,0.062,0.047,1.125
06/14/2018 13:42:29.948,0.062,0.047,1.125
06/14/2018 13:42:29.999,0.062,0.047,1.125
06/14/2018 13:42:30.049,0.062,0.047,1.125
06/14/2018 13:42:30.098,0.062,0.047,1.125
06/14/2018 13:42:30.148,0.062,0.047,1.125
06/14/2018 13:42:30.198,0.062,0.047,1.125
06/14/2018 13:42:30.249,0.062,0.047,1.125
06/14/2018 13:42:30.299,0.062,0.047,1.125
06/14/2018 13:42:30.348,0.062,0.047,1.125
06/14/2018 13:42:30.398,0.062,0.047,1.125
06/14/2018 13:42:30.448,0.062,0.047,1.125
06/14/2018 13:42:30.499,0.062,0.047,1.125
06/14/2018 13:42:30.549,0.062,0.047,1.125
06/14/2018 13:42:30.598,0.062,0.047,1.125
06/14/2018 13:42:30.648,0.062,0.047,1.125
06/14/2018 13:42:30.698,0.062,0.047,1.125
06/14/2018 13:42:30.749,0.062,0.047,1.125
06/14/2018 13:42:30.799,0.062,0.047,1.125
06/14/2018 13:42:30.848,0.062,0.047,1.125
06/14/2018 13:42:30.898,0.062,0.047,1.125
06/14/2018 13:42:30.948,0.062,0.047,1.125
06/14/2018 13:42:30.999,0.062,0.047,1.125
06/14/2018 13:42:31.049,0.062,0.047,1.125
06/14/2018 13:42:31.098,0.062,0.047,1.125
06/14/2018 13:42:31.148,0.062,0.047,1.125
06/14/2018 13:42:31.198,0.062,0.047,1.125
06/14/2018 13:42:31.249,0.062,0.047,1.125
06/14/2018 13:42:31.299,0.062,0.047,1.125
06/14/2018 13:42:31.348,0.062,0.047,1.125
06/14/2018 13:42:31.398,0.062,0.047,1.125
06/14/2018 13:42:31.448,0.062,0.047,1.125
06/14/2018 13:42:31.499,0.062,0.047,1.125
06/14/2018 13:42:31.549,0.062,0.047,1.125
06/14/2018 13:42:31.598,0.062,0.047,1.125
06/14/2018 13:42:31.648,0.062,0.047,1.125
06/14/2018 13:42:31.698,0.062,0.047,1.125
06/14/2018 13:42:31.749,0.062,0.047,1.125
06/14/2018 13:42:31.799,0.062,0.047,1.125
06/14/2018 13:42:31.848,0.062,0.047,1.125
06/14/2018 13:42:31.898,0.062,0.047,1.125
06/14/2018 13:42:31.948,0.062,0.047,1.125
06/14/2018 13:42:31.999,0.062,0.047,1.125
06/14/2018 13:42:32.049,0.062,0.047,1.125
06/14/2018 13:42:32.098,0.062,0.047,1.125
06/14/2018 13:42:32.148,0.062,0.047,1.125
06/14/2018 13:42:32.198,0.062,0.047,1.125
06/14/2018 13:42:32.249,0.062,0.047,1.125
06/14/2018 13:42:32.299,0.062,0.047,1.125
06/14/2018 13:42:32.348,0.062,0.047,1.125
06/14/2018 13:42:32.398,0.062,0.047,1.125
06/14/2018 13:42:32.448,0.062,0.047,1.125
06/14/2018 13:42:32.499,0.062,0.047,1.125
06/14/2018 13:42:32.549,0.062,0.047,1.125
06/14/2018 13:42:32.598,0.062,0.047,1.125
06/14/2018 13:42:32.648,0.062,0.047,1.125
06/14/2018 13:42:32.698,0.062,0.047,1.125
06/14/2018 13:42:32.749,0.062,0.047,1.125
06/14/2018 13:42:32.799,0.062,0.047,1.125
06/14/2018 13:42:32.848,0.062,0.047,1.125
06/14/2018 13:42:32.898,0.062,0.047,1.125
06/14/2018 13:42:32.948,0.062,0.047,1.125
06/14/2018 13:42:32.999,0.062,0.047,1.125
06/14/2018 13:42:33.049,0.062,0.047,1.125
06/14/2018 13:42:33.098,0.062,0.047,1.125
06/14/2018 13:42:33.148,0.062,0.047,1.125
06/14/2018 13:42:33.198,0.062,0.047,1.125
06/14/2018 13:42:33.249,0.062,0.047,1.125
06/14/2018 13:42:33.299,0.062,0.047,1.125
06/14/2018 13:42:33.348,0.062,0.047,1.125
06/14/2018 13:42:33.398,0.062,0.047,1.125
06/14/2018 13:42:33.448,0.062,0.047,1.125
06/14/2018 13:42:33.499,0.062,0.047,1.125
06/14/2018 13:42:33.549,0.062,0.047,1.125
06/14/2018 13:42:33.598,0.062,0.047,1.125
06/14/2018 13:42:33.648,0.062,0.047,1.125
06/14/2018 13:42:33.698,0.062,0.047,1.125
06/14/2018 13:42:33.749,0.062,0.047,1.125
06/14/2018 13:42:33.799,0.062,0.047,1.125
06/14/2018 13:42:33.848,0.062,0.047,1.125
06/14/2018 13:42:33.898,0.062,0.047,1.125
06/14/2018 13:42:33.948,0.062,0.047,1.125
06/14/2018 13:42:33.999,0.062,0.047,1.125
06/14/2018 13:42:34.049,0.062,0.047,1.125
06/14/2018 13:42:34.098,0.062,0.047,1.125
06/14/2018 13:42:34.148,0.062,0.047,1.125
06/14/2018 13:42:34.198,0.062,0.047,1.125
06/14/2018 13:42:34.249,0.062,0.047,1.125
06/14/2018 13:42:34.299,0.062,0.047,1.125
06/14/2018 13:42:34.348,0.062,0.047,1.125
06/14/2018 13:42:34.398,0.062,0.047,1.125
06/14/2018 13:42:34.448,0.062,0.047,1.125
06/14/2018 13:42:34.499,0.062,0.047,1.125
06/14/2018 13:42:34.549,0.062,0.047,1.125
06/14/2018 13:42:34.598,0.062,0.047,1.125
06/14/2018 13:42:34.648,0.062,0.047,1.125
06/14/2018 13:42:34.698,0.062,0.047,1.125
06/14/2018 13:42:34.749,0.062,0.047,1.125
06/14/2018 13:42:34.799,0.062,0.047,1.125
06/14/2018 13:42:34.848,0.062,0.047,1.125
06/14/2018 13:42:34.898,0.062,0.047,1.125
06/14/2018 13:42:34.948,0.062,0.047,1.125
06/14/2018 13:42:34.999,0.062,0.047,1.125
06/14/2018 13:42:35.049,0.062,0.047,1.125
06/14/2018 13:42:35.098,0.062,0.047,1.125
06/14/2018 13:42:35.148,0.062,0.047,1.125
06/14/2018 13:42:35.198,0.062,0.047,1.125
06/14/2018 13:42:35.249,0.062,0.047,1.125
06/14/2018 13:42:35.299,0.062,0.047,1.125
06/14/2018 13:42:35.348,0.062,0.047,1.125
06/14/2018 13:42:35.398,0.062,0.047,1.125
06/14/2018 13:42:35.448,0.062,0.047,1.125
06/14/2018 13:42:35.499,0.062,0.047,1.125
06/14/2018 13:42:35.549,0.062,0.047,1.125
06/14/2018 13:42:35.598,0.062,0.047,1.125
06/14/2018 13:42:35.648,0.062,0.047,1.125
06/14/2018 13:42:35.698,0.062,0.047,1.125
06/14/2018 13:42:35.749,0.062,0.047,1.125
06/14/2018 13:42:35.799,0.062,0.047,1.125
06/14/2018 13:42:35.848,0.062,0.047,1.125
06/14/2018 13:42:35.898,0.062,0.047,1.125
06/14/2018 13:42:35.948,0.062,0.047,1.125
06/14/2018 13:42:35.999,0.062,0.047,1.125
06/14/2018 13:42:36.049,0.062,0.047,1.125
06/14/2018 13:42:36.098,0.062,0.047,1.125
06/14/2018 13:42:36.148,0.062,0.047,1.125
06/14/2018 13:42:36.198,0.062,0.047,1.125
06/14/2018 13:42:36.249,0.062,0.047,1.125
06/14/2018 13:42:36.299,0.062,0.047,1.125
06/14/2018 13:42:36.348,0.062,0.047,1.125
06/14/2018 13:42:36.398,0.062,0.047,1.125
06/14/2018 13:42:36.448,0.062,0.047,1.125
06/14/2018 13:42:36.499,0.062,0.047,1.125
06/14/2018 13:42:36.549,0.062,0.047,1.125
06/14/2018 13:42:36.598,0.062,0.047,1.125
06/14/2018 13:42:36.648,0.062,0.047,1.125
06/14/2018 13:42:36.698,0.062,0.047,1.125
06/14/2018 13:42:36.749,0.062,0.047,1.125
06/14/2018 13:42:36.799,0.062,0.047,1.125
06/14/2018 13:42:36.848,0.062,0.047,1.125
06/14/2018 13:42:36.898,0.062,0.047,1.125
06/14/2018 13:42:36.948,0.062,0.047,1.125
06/14/2018 13:42:36.999,0.062,0.047,1.125
06/14/2018 13:42:37.049,0.062,0.047,1.125
06/14/2018 13:42:37.098,0.062,0.047,1.125
06/14/2018 13:42:37.148,0.062,0.047,1.125
06/14/2018 13:42:37.198,0.062,0.047,1.125
06/14/2018 13:42:37.249,0.062,0.047,1.125
06/14/2018 13:42:37.299,0.062,0.047,1.125
06/14/2018 13:42:37.348,0.062,0.047,1.125
06/14/2018 13:42:37.398,0.062,0.047,1.125
06/14/2018 13:42:37.448,0.062,0.047,1.125
06/14/2018 13:42:37.499,0.062,0.047,1.125
06/14/2018 13:42:37.549,0.062,0.047,1.125
06/14/2018 13:42:37.598,0.062,0.047,1.125
06/14/2018 13:42:37.648,0.062,0.047,1.125
06/14/2018 13:42:37.698,0.062,0.047,1.125
06/14/2018 13:42:37.749,0.062,0.047,1.125
06/14/2018 13:42:37.799,0.062,0.047,1.125
06/14/2018 13:42:37.848,0.062,0.047,1.125
06/14/2018 13:42:37.898,0.062,0.047,1.125
06/14/2018 13:42:37.948,0.062,0.047,1.125
06/14/2018 13:42:37.999,0.062,0.047,1.125
06/14/2018 13:42:38.049,0.062,0.047,1.125
06/14/2018 13:42:38.098,0.062,0.047,1.125
06/14/2018 13:42:38.148,0.062,0.047,1.125
06/14/2018 13:42:38.198,0.062,0.047,1.125
06/14/2018 13:42:38.249,0.062,0.047,1.125
06/14/2018 13:42:38.299,0.062,0.047,1.125
06/14/2018 13:42:38.348,0.062,0.047,1.125
06/14/2018 13:42:38.398,0.062,0.047,1.125
06/14/2018 13:42:38.448,0.062,0.047,1.125
06/14/2018 13:42:38.499,0.062,0.047,1.125
06/14/2018 13:42:38.549,0.062,0.047,1.125
06/14/2018 13:42:38.598,0.062,0.047,1.125
06/14/2018 13:42:38.648,0.062,0.047,1.125
06/14/2018 13:42:38.698,0.062,0.047,1.125
06/14/2018 13:42:38.749,0.062,0.047,1.125
06/14/2018 13:42:38.799,0.062,0.047,1.125
06/14/2018 13:42:38.848,0.062,0.047,1.125
06/14/2018 13:42:38.898,0.062,0.047,1.125
06/14/2018 13:42:38.948,0.062,0.047,1.125
06/14/2018 13:42:38.999,0.062,0.047,1.125
06/14/2018 13:42:39.049,0.062,0.047,1.125
06/14/2018 13:42:39.098,0.062,0.047,1.125
06/14/2018 13:42:39.148,0.062,0.047,1.125
06/14/2018 13:42:39.198,0.062,0.047,1.125
06/14/2018 13:42:39.249,0.062,0.047,1.125
06/14/2018 13:42:39.299,0.062,0.047,1.125
06/14/2018 13:42:39.348,0.062,0.047,1.125
06/14/2018 13:42:39.398,0.062,0.047,1.125
06/14/2018 13:42:39.448,0.062,0.047,1.125
06/14/2018 13:42:39.499,0.062,0.047,1.125
06/14/2018 13:42:39.549,0.062,0.047,1.125
06/14/2018 13:42:39.598,0.062,0.047,1.125
06/14/2018 13:42:39.648,0.062,0.047,1.125
06/14/2018 13:42:39.698,0.062,0.047,1.125
06/14/2018 13:42:39.749,0.062,0.047,1.125
06/14/2018 13:42:39.799,0.062,0.047,1.125
06/14/2018 13:42:39.848,0.062,0.047,1.125
06/14/2018 13:42:39.898,0.062,0.047,1.125
06/14/2018 13:42:39.948,0.062,0.047,1.125
06/14/2018 13:42:39.999,0.062,0.047,1.125
06/14/2018 13:42:40.049,0.062,0.047,1.125
06/14/2018 13:42:40.098,0.062,0.047,1.125
06/14/2018 13:42:40.148,0.062,0.047,1.125
06/14/2018 13:42:40.198,0.062,0.047,1.125
06/14/2018 13:42:40.249,0.062,0.047,1.125
06/14/2018 13:42:40.299,0.062,0.047,1.125
06/14/2018 13:42:40.348,0.062,0.047,1.125
06/14/2018 13:42:40.398,0.062,0.047,1.125
06/14/2018 13:42:40.448,0.062,0.047,1.125
06/14/2018 13:42:40.499,0.062,0.047,1.125
06/14/2018 13:42:40.549,0.062,0.047,1.125
06/14/2018 13:42:40.598,0.062,0.047,1.125
06/14/2018 13:42:40.648,0.062,0.047,1.125
06/14/2018 13:42:40.698,0.062,0.047,1.125
06/14/2018 13:42:40.749,0.062,0.047,1.125
06/14/2018 13:42:40.799,0.062,0.047,1.125
06/14/2018 13:42:40.848,0.062,0.047,1.125
06/14/2018 13:42:40.898,0.062,0.047,1.125
06/14/2018 13:42:40.948,0.062,0.047,1.125
06/14/2018 13:42:40.999,0.062,0.047,1.125
06/14/2018 13:42:41.049,0.062,0.047,1.125
06/14/2018 13:42:41.098,0.062,0.047,1.125
06/14/2018 13:42:41.148,0.062,0.047,1.125
06/14/2018 13:42:41.198,0.062,0.047,1.125
06/14/2018 13:42:41.249,0.062,0.047,1.125
06/14/2018 13:42:41.299,0.062,0.047,1.125
06/14/2018 13:42:41.348,0.062,0.047,1.125
06/14/2018 13:42:41.398,0.062,0.047,1.125
06/14/2018 13:42:41.448,0.062,0.047,1.125
06/14/2018 13:42:41.499,0.062,0.047,1.125
06/14/2018 13:42:41.549,0.062,0.047,1.125
06/14/2018 13:42:41.598,0.062,0.047,1.125
06/14/2018 13:42:41.648,0.062,0.047,1.125
06/14/2018 13:42:41.698,0.062,0.047,1.125
06/14/2018 13:42:41.749,0.062,0.047,1.125
06/14/2018 13:42:41.799,0.062,0.047,1.125
06/14/2018 13:42:41.848,0.062,0.047,1.125
06/14/2018 13:42:41.898,0.062,0.047,1.125
06/14/2018 13:42:41.948,0.062,0.047,1.125
06/14/2018 13:42:41.999,0.062,0.047,1.125
06/14/2018 13:42:42.049,0.062,0.047,1.125
06/14/2018 13:42:42.098,0.062,0.047,1.125
06/14/2018 13:42:42.148,0.062,0.047,1.125
06/14/2018 13:42:42.198,0.062,0.047,1.125
06/14/2018 13:42:42.249,0.062,0.047,1.125
06/14/2018 13:42:42.299,0.062,0.047,1.125
06/14/2018 13:42:42.348,0.062,0.047,1.125
06/14/2018 13:42:42.398,0.062,0.047,1.125
06/14/2018 13:42:42.448,0.062,0.047,1.125
06/14/2018 13:42:42.499,0.062,0.047,1.125
06/14/2018 13:42:42.549,0.062,0.047,1.125
06/14/2018 13:42:42.598,0.062,0.047,1.125
06/14/2018 13:42:42.648,0.062,0.047,1.125
06/14/2018 13:42:42.698,0.062,0.047,1.125
06/14/2018 13:42:42.749,0.062,0.047,1.125
06/14/2018 13:42:42.799,0.062,0.047,1.125
06/14/2018 13:42:42.848,0.062,0.047,1.125
06/14/2018 13:42:42.898,0.062,0.047,1.125
06/14/2018 13:42:42.948,0.062,0.047,1.125
06/14/2018 13:42:42.999,0.062,0.047,1.125
06/14/2018 13:42:43.049,0.062,0.047,1.125
06/14/2018 13:42:43.098,0.062,0.047,1.125
06/14/2018 13:42:43.148,0.062,0.047,1.125
06/14/2018 13:42:43.198,0.062,0.047,1.125
06/14/2018 13:42:43.249,0.062,0.047,1.125
06/14/2018 13:42:43.299,0.062,0.047,1.125
06/14/2018 13:42:43.348,0.062,0.047,1.125
06/14/2018 13:42:43.398,0.062,0.047,1.125
06/14/2018 13:42:43.448,0.062,0.047,1.125
06/14/2018 13:42:43.499,0.062,0.047,1.125
06/14/2018 13:42:43.549,0.062,0.047,1.125
06/14/2018 13:42:43.598,0.062,0.047,1.125
06/14/2018 13:42:43.648,0.062,0.047,1.125
06/14/2018 13:42:43.698,0.062,0.047,1.125
06/14/2018 13:42:43.749,0.062,0.047,1.125
06/14/2018 13:42:43.799,0.062,0.047,1.125
06/14/2018 13:42:43.848,0.062,0.047,1.125
06/14/2018 13:42:43.898,0.062,0.047,1.125
06/14/2018 13:42:43.948,0.062,0.047,1.125
06/14/2018 13:42:43.999,0.062,0.047,1.125
06/14/2018 13:42:44.049,0.062,0.047,1.125
06/14/2018 13:42:44.098,0.062,0.047,1.125
06/14/2018 13:42:44.148,0.062,0.047,1.125
06/14/2018 13:42:44.198,0.062,0.047,1.125
06/14/2018 13:42:44.249,0.062,0.047,1.125
06/14/2018 13:42:44.299,0.062,0.047,1.125
06/14/2018 13:42:44.348,0.062,0.047,1.125
06/14/2018 13:42:44.398,0.062,0.047,1.125
06/14/2018 13:42:44.448,0.062,0.047,1.125
06/14/2018 13:42:44.499,0.062,0.047,1.125
06/14/2018 13:42:44.549,0.062,0.047,1.125
06/14/2018 13:42:44.598,0.062,0.047,1.125
06/14/2018 13:42:44.648,0.062,0.047,1.125
06/14/2018 13:42:44.698,0.062,0.047,1.125
06/14/2018 13:42:44.749,0.062,0.047,1.125
06/14/2018 13:42:44.799,0.062,0.047,1.125
06/14/2018 13:42:44.848,0.062,0.047,1.125
06/14/2018 13:42:44.898,0.062,0.047,1.125
06/14/2018 13:42:44.948,0.062,0.047,1.125
06/14/2018 13:42:44.999,0.062,0.047,1.125
06/14/2018 13:42:45.049,0.062,0.047,1.125
06/14/2018 13:42:45.098,0.062,0.047,1.125
06/14/2018 13:42:45.148,0.062,0.047,1.125
06/14/2018 13:42:45.198,0.062,0.047,1.125
06/14/2018 13:42:45.249,0.062,0.047,1.125
06/14/2018 13:42:45.299,0.062,0.047,1.125
06/14/2018 13:42:45.348,0.062,0.047,1.125
06/14/2018 13:42:45.398,0.062,0.047,1.125
06/14/2018 13:42:45.448,0.062,0.047,1.125
06/14/2018 13:42:45.499,0.062,0.047,1.125
06/14/2018 13:42:45.549,0.062,0.047,1.125
06/14/2018 13:42:45.598,0.062,0.047,1.125
06/14/2018 13:42:45.648,0.062,0.047,1.125
06/14/2018 13:42:45.698,0.062,0.047,1.125
06/14/2018 13:42:45.749,0.062,0.047,1.125
06/14/2018 13:42:45.799,0.062,0.047,1.125
06/14/2018 13:42:45.848,0.062,0.047,1.125
06/14/2018 13:42:45.898,0.062,0.047,1.125
06/14/2018 13:42:45.948,0.062,0.047,1.125
06/14/2018 13:42:45.999,0.062,0.047,1.125
06/14/2018 13:42:46.049,0.062,0.047,1.125
06/14/2018 13:42:46.098,0.062,0.047,1.125
06/14/2018 13:42:46.148,0.062,0.047,1.125
06/14/2018 13:42:46.198,0.062,0.047,1.125
06/14/2018 13:42:46.249,0.062,0.047,1.125
06/14/2018 13:42:46.299,0.062,0.047,1.125
06/14/2018 13:42:46.348,0.062,0.047,1.125
06/14/2018 13:42:46.398,0.062,0.047,1.125
06/14/2018 13:42:46.448,0.062,0.047,1.125
06/14/2018 13:42:46.499,0.062,0.047,1.125
06/14/2018 13:42:46.549,0.062,0.047,1.125
06/14/2018 13:42:46.598,0.062,0.047,1.125
06/14/2018 13:42:46.648,0.062,0.047,1.125
06/14/2018 13:42:46.698,0.062,0.047,1.125
06/14/2018 13:42:46.749,0.062,0.047,1.125
06/14/2018 13:42:46.799,0.062,0.047,1.125
06/14/2018 13:42:46.848,0.062,0.047,1.125
06/14/2018 13:42:46.898,0.062,0.047,1.125
06/14/2018 13:42:46.948,0.062,0.047,1.125
06/14/2018 13:42:46.999,0.062,0.047,1.125
06/14/2018 13:42:47.049,0.062,0.047,1.125
06/14/2018 13:42:47.098,0.062,0.047,1.125
06/14/2018 13:42:47.148,0.062,0.047,1.125
06/14/2018 13:42:47.198,0.062,0.047,1.125
06/14/2018 13:42:47.249,0.062,0.047,1.125
06/14/2018 13:42:47.299,0.062,0.047,1.125
06/14/2018 13:42:47.348,0.062,0.047,1.125
06/14/2018 13:42:47.398,0.062,0.047,1.125
06/14/2018 13:42:47.448,0.062,0.047,1.125
06/14/2018 13:42:47.499,0.062,0.047,1.125
06/14/2018 13:42:47.549,0.062,0.047,1.125
06/14/2018 13:42:47.598,0.062,0.047,1.125
06/14/2018 13:42:47.648,0.062,0.047,1.125
06/14/2018 13:42:47.698,0.062,0.047,1.125
06/14/2018 13:42:47.749,0.062,0.047,1.125
06/14/2018 13:42:47.799,0.062,0.047,1.125
06/14/2018 13:42:47.848,0.062,0.047,1.125
06/14/2018 13:42:47.898,0.062,0.047,1.125
06/14/2018 13:42:47.948,0.062,0.047,1.125
06/14/2018 13:42:47.999,0.062,0.047,1.125
06/14/2018 13:42:48.049,0.062,0.047,1.125
06/14/2018 13:42:48.098,0.062,0.047,1.125
06/14/2018 13:42:48.148,0.062,0.047,1.125
06/14/2018 13:42:48.198,0.062,0.047,1.125
06/14/2018 13:42:48.249,0.062,0.047,1.125
06/14/2018 13:42:48.299,0.062,0.047,1.125
06/14/2018 13:42:48.348,0.062,0.047,1.125
06/14/2018 13:42:48.398,0.062,0.047,1.125
06/14/2018 13:42:48.448,0.062,0.047,1.125
06/14/2018 13:42:48.499,0.062,0.047,1.125
06/14/2018 13:42:48.549,0.062,0.047,1.125
06/14/2018 13:42:48.598,0.062,0.047,1.125
06/14/2018 13:42:48.648,0.062,0.047,1.125
06/14/2018 13:42:48.698,0.062,0.047,1.125
06/14/2018 13:42:48.749,0.062,0.047,1.125
06/14/2018 13:42:48.799,0.062,0.047,1.125
06/14/2018 13:42:48.848,0.062,0.047,1.125
06/14/2018 13:42:48.898,0.062,0.047,1.125
06/14/2018 13:42:48.948,0.062,0.047,1.125
06/14/2018 13:42:48.999,0.062,0.047,1.125
06/14/2018 13:42:49.049,0.062,0.047,1.125
06/14/2018 13:42:49.098,0.062,0.047,1.125
06/14/2018 13:42:49.148,0.062,0.047,1.125
06/14/2018 13:42:49.198,0.062,0.047,1.125
06/14/2018 13:42:49.249,0.062,0.047,1.125
06/14/2018 13:42:49.299,0.062,0.047,1.125
06/14/2018 13:42:49.348,0.062,0.047,1.125
06/14/2018 13:42:49.398,0.062,0.047,1.125
06/14/2018 13:42:49.448,0.062,0.047,1.125
06/14/2018 13:42:49.499,0.062,0.047,1.125
06/14/2018 13:42:49.549,0.062,0.047,1.125
06/14/2018 13:42:49.598,0.062,0.047,1.125
06/14/2018 13:42:49.648,0.062,0.047,1.125
06/14/2018 13:42:49.698,0.062,0.047,1.125
06/14/2018 13:42:49.749,0.062,0.047,1.125
06/14/2018 13:42:49.799,0.062,0.047,1.125
06/14/2018 13:42:49.848,0.062,0.047,1.125
06/14/2018 13:42:49.898,0.062,0.047,1.125
06/14/2018 13:42:49.948,0.062,0.047,1.125
06/14/2018 13:42:49.999,0.062,0.047,1.125
06/14/2018 13:42:50.049,0.062,0.047,1.125
06/14/2018 13:42:50.098,0.062,0.047,1.125
06/14/2018 13:42:50.148,0.062,0.047,1.125
06/14/2018 13:42:50.198,0.062,0.047,1.125
06/14/2018 13:42:50.249,0.062,0.047,1.125
06/14/2018 13:42:50.299,0.062,0.047,1.125
06/14/2018 13:42:50.348,0.062,0.047,1.125
06/14/2018 13:42:50.398,0.062,0.047,1.125
06/14/2018 13:42:50.448,0.062,0.047,1.125
06/14/2018 13:42:50.499,0.062,0.047,1.125
06/14/2018 13:42:50.549,0.062,0.047,1.125
06/14/2018 13:42:50.598,0.062,0.047,1.125
06/14/2018 13:42:50.648,0.062,0.047,1.125
06/14/2018 13:42:50.698,0.062,0.047,1.125
06/14/2018 13:42:50.749,0.062,0.047,1.125
06/14/2018 13:42:50.799,0.062,0.047,1.125
06/14/2018 13:42:50.848,0.062,0.047,1.125
06/14/2018 13:42:50.898,0.062,0.047,1.125
06/14/2018 13:42:50.948,0.062,0.047,1.125
06/14/2018 13:42:50.999,0.062,0.047,1.125
06/14/2018 13:42:51.049,0.062,0.047,1.125
06/14/2018 13:42:51.098,0.062,0.047,1.125
06/14/2018 13:42:51.148,0.062,0.047,1.125
06/14/2018 13:42:51.198,0.062,0.047,1.125
06/14/2018 13:42:51.249,0.062,0.047,1.125
06/14/2018 13:42:51.299,0.062,0.047,1.125
06/14/2018 13:42:51.348,0.062,0.047,1.125
06/14/2018 13:42:51.398,0.062,0.047,1.125
06/14/2018 13:42:51.448,0.062,0.047,1.125
06/14/2018 13:42:51.499,0.062,0.047,1.125
06/14/2018 13:42:51.549,0.062,0.047,1.125
06/14/2018 13:42:51.598,0.062,0.047,1.125
06/14/2018 13:42:51.648,0.062,0.047,1.125
06/14/2018 13:42:51.698,0.062,0.047,1.125
06/14/2018 13:42:51.749,0.062,0.047,1.125
06/14/2018 13:42:51.799,0.062,0.047,1.125
06/14/2018 13:42:51.848,0.062,0.047,1.125
06/14/2018 13:42:51.898,0.062,0.047,1.125
06/14/2018 13:42:51.948,0.062,0.047,1.125
06/14/2018 13:42:51.999,0.062,0.047,1.125
06/14/2018 13:42:52.049,0.062,0.047,1.125
06/14/2018 13:42:52.098,0.062,0.047,1.125
06/14/2018 13:42:52.148,0.062,0.047,1.125
06/14/2018 13:42:52.198,0.062,0.047,1.125
06/14/2018 13:42:52.249,0.062,0.047,1.125
06/14/2018 13:42:52.299,0.062,0.047,1.125
06/14/2018 13:42:52.348,0.062,0.047,1.125
06/14/2018 13:42:52.398,0.062,0.047,1.125
06/14/2018 13:42:52.448,0.062,0.047,1.125
06/14/2018 13:42:52.499,0.062,0.047,1.125
06/14/2018 13:42:52.549,0.062,0.047,1.125
06/14/2018 13:42:52.598,0.062,0.047,1.125
06/14/2018 13:42:52.648,0.062,0.047,1.125
06/14/2018 13:42:52.698,0.062,0.047,1.125
06/14/2018 13:42:52.749,0.062,0.047,1.125
06/14/2018 13:42:52.799,0.062,0.047,1.125
06/14/2018 13:42:52.848,0.062,0.047,1.125
06/14/2018 13:42:52.898,0.062,0.047,1.125
06/14/2018 13:42:52.948,0.062,0.047,1.125
06/14/2018 13:42:52.999,0.062,0.047,1.125
06/14/2018 13:42:53.049,0.062,0.047,1.125
06/14/2018 13:42:53.098,0.062,0.047,1.125
06/14/2018 13:42:53.148,0.062,0.047,1.125
06/14/2018 13:42:53.198,0.062,0.047,1.125
06/14/2018 13:42:53.249,0.062,0.047,1.125
06/14/2018 13:42:53.299,0.062,0.047,1.125
06/14/2018 13:42:53.348,0.062,0.047,1.125
06/14/2018 13:42:53.398,0.062,0.047,1.125
06/14/2018 13:42:53.448,0.062,0.047,1.125
06/14/2018 13:42:53.499,0.062,0.047,1.125
06/14/2018 13:42:53.549,0.062,0.047,1.125
06/14/2018 13:42:53.598,0.062,0.047,1.125
06/14/2018 13:42:53.648,0.062,0.047,1.125
06/14/2018 13:42:53.698,0.062,0.047,1.125
06/14/2018 13:42:53.749,0.062,0.047,1.125
06/14/2018 13:42:53.799,0.062,0.047,1.125
06/14/2018 13:42:53.848,0.062,0.047,1.125
06/14/2018 13:42:53.898,0.062,0.047,1.125
06/14/2018 13:42:53.948,0.062,0.047,1.125
06/14/2018 13:42:53.999,0.062,0.047,1.125
06/14/2018 13:42:54.049,0.062,0.047,1.125
06/14/2018 13:42:54.098,0.062,0.047,1.125
06/14/2018 13:42:54.148,0.062,0.047,1.125
06/14/2018 13:42:54.198,0.062,0.047,1.125
06/14/2018 13:42:54.249,0.062,0.047,1.125
06/14/2018 13:42:54.299,0.062,0.047,1.125
06/14/2018 13:42:54.348,0.062,0.047,1.125
06/14/2018 13:42:54.398,0.062,0.047,1.125
06/14/2018 13:42:54.448,0.062,0.047,1.125
06/14/2018 13:42:54.499,0.062,0.047,1.125
06/14/2018 13:42:54.549,0.062,0.047,1.125
06/14/2018 13:42:54.598,0.062,0.047,1.125
06/14/2018 13:42:54.648,0.062,0.047,1.125
06/14/2018 13:42:54.698,0.062,0.047,1.125
06/14/2018 13:42:54.749,0.062,0.047,1.125
06/14/2018 13:42:54.799,0.062,0.047,1.125
06/14/2018 13:42:54.848,0.062,0.047,1.125
06/14/2018 13:42:54.898,0.062,0.047,1.125
06/14/2018 13:42:54.948,0.062,0.047,1.125
06/14/2018 13:42:54.999,0.062,0.047,1.125
06/14/2018 13:42:55.049,0.062,0.047,1.125
06/14/2018 13:42:55.098,0.062,0.047,1.125
06/14/2018 13:42:55.148,0.062,0.047,1.125
06/14/2018 13:42:55.198,0.062,0.047,1.125
06/14/2018 13:42:55.249,0.062,0.047,1.125
06/14/2018 13:42:55.299,0.062,0.047,1.125
06/14/2018 13:42:55.348,0.062,0.047,1.125
06/14/2018 13:42:55.398,0.062,0.047,1.125
06/14/2018 13:42:55.448,0.062,0.047,1.125
06/14/2018 13:42:55.499,0.062,0.047,1.125
06/14/2018 13:42:55.549,0.062,0.047,1.125
06/14/2018 13:42:55.598,0.062,0.047,1.125
06/14/2018 13:42:55.648,0.062,0.047,1.125
06/14/2018 13:42:55.698,0.062,0.047,1.125
06/14/2018 13:42:55.749,0.062,0.047,1.125
06/14/2018 13:42:55.799,0.062,0.047,1.125
06/14/2018 13:42:55.848,0.062,0.047,1.125
06/14/2018 13:42:55.898,0.062,0.047,1.125
06/14/2018 13:42:55.948,0.062,0.047,1.125
06/14/2018 13:42:55.999,0.062,0.047,1.125
06/14/2018 13:42:56.049,0.062,0.047,1.125
06/14/2018 13:42:56.098,0.062,0.047,1.125
06/14/2018 13:42:56.148,0.062,0.047,1.125
06/14/2018 13:42:56.198,0.062,0.047,1.125
06/14/2018 13:42:56.249,0.062,0.047,1.125
06/14/2018 13:42:56.299,0.062,0.047,1.125
06/14/2018 13:42:56.348,0.062,0.047,1.125
06/14/2018 13:42:56.398,0.062,0.047,1.125
06/14/2018 13:42:56.448,0.062,0.047,1.125
06/14/2018 13:42:56.499,0.062,0.047,1.125
06/14/2018 13:42:56.549,0.062,0.047,1.125
06/14/2018 13:42:56.598,0.062,0.047,1.125
06/14/2018 13:42:56.648,0.062,0.047,1.125
06/14/2018 13:42:56.698,0.062,0.047,1.125
06/14/2018 13:42:56.749,0.062,0.047,1.125
06/14/2018 13:42:56.799,0.062,0.047,1.125
06/14/2018 13:42:56.848,0.062,0.047,1.125
06/14/2018 13:42:56.898,0.062,0.047,1.125
06/14/2018 13:42:56.948,0.062,0.047,1.125
06/14/2018 13:42:56.999,0.062,0.047,1.125
06/14/2018 13:42:57.049,0.062,0.047,1.141
06/14/2018 13:42:57.098,0.062,0.047,1.141
06/14/2018 13:42:57.148,0.062,0.047,1.141
06/14/2018 13:42:57.198,0.062,0.047,1.141
06/14/2018 13:42:57.249,0.062,0.047,1.141
06/14/2018 13:42:57.299,0.062,0.047,1.141
06/14/2018 13:42:57.348,0.062,0.047,1.141
06/14/2018 13:42:57.398,0.062,0.047,1.141
06/14/2018 13:42:57.448,0.062,0.047,1.141
06/14/2018 13:42:57.499,0.062,0.047,1.141
06/14/2018 13:42:57.549,0.062,0.047,1.141
06/14/2018 13:42:57.598,0.062,0.047,1.141
06/14/2018 13:42:57.648,0.062,0.047,1.141
06/14/2018 13:42:57.698,0.062,0.047,1.141
06/14/2018 13:42:57.749,0.062,0.047,1.141
06/14/2018 13:42:57.799,0.062,0.047,1.141
06/14/2018 13:42:57.848,0.062,0.047,1.141
06/14/2018 13:42:57.898,0.062,0.047,1.141
06/14/2018 13:42:57.948,0.062,0.047,1.141
06/14/2018 13:42:57.999,0.062,0.047,1.141
06/14/2018 13:42:58.049,0.062,0.047,1.141
06/14/2018 13:42:58.098,0.062,0.047,1.141
06/14/2018 13:42:58.148,0.062,0.047,1.141
06/14/2018 13:42:58.198,0.062,0.047,1.141
06/14/2018 13:42:58.249,0.062,0.047,1.141
06/14/2018 13:42:58.299,0.062,0.047,1.141
06/14/2018 13:42:58.348,0.062,0.047,1.141
06/14/2018 13:42:58.398,0.062,0.047,1.141
06/14/2018 13:42:58.448,0.062,0.047,1.141
06/14/2018 13:42:58.499,0.062,0.047,1.141
06/14/2018 13:42:58.549,0.062,0.047,1.141
06/14/2018 13:42:58.598,0.062,0.047,1.141
06/14/2018 13:42:58.648,0.062,0.047,1.141
06/14/2018 13:42:58.698,0.062,0.047,1.141
06/14/2018 13:42:58.749,0.062,0.047,1.141
06/14/2018 13:42:58.799,0.062,0.047,1.141
06/14/2018 13:42:58.848,0.062,0.047,1.141
06/14/2018 13:42:58.898,0.062,0.047,1.141
06/14/2018 13:42:58.948,0.062,0.047,1.141
06/14/2018 13:42:58.999,0.062,0.047,1.141
06/14/2018 13:42:59.049,0.062,0.047,1.141
06/14/2018 13:42:59.098,0.062,0.047,1.141
06/14/2018 13:42:59.148,0.062,0.047,1.141
06/14/2018 13:42:59.198,0.062,0.047,1.141
06/14/2018 13:42:59.249,0.062,0.047,1.141
06/14/2018 13:42:59.299,0.062,0.047,1.141
06/14/2018 13:42:59.348,0.062,0.047,1.141
06/14/2018 13:42:59.398,0.062,0.047,1.141
06/14/2018 13:42:59.448,0.062,0.047,1.141
06/14/2018 13:42:59.499,0.062,0.047,1.141
06/14/2018 13:42:59.549,0.062,0.047,1.141
06/14/2018 13:42:59.598,0.062,0.047,1.141
06/14/2018 13:42:59.648,0.062,0.047,1.141
06/14/2018 13:42:59.698,0.062,0.047,1.141
06/14/2018 13:42:59.749,0.062,0.047,1.141
06/14/2018 13:42:59.799,0.062,0.047,1.141
06/14/2018 13:42:59.848,0.062,0.047,1.141
06/14/2018 13:42:59.898,0.062,0.047,1.141
06/14/2018 13:42:59.948,0.062,0.047,1.141
06/14/2018 13:42:59.999,0.062,0.047,1.141
06/14/2018 13:43:00.049,0.062,0.047,1.141
06/14/2018 13:43:00.098,0.062,0.047,1.141
06/14/2018 13:43:00.148,0.062,0.047,1.141
06/14/2018 13:43:00.198,0.062,0.047,1.141
06/14/2018 13:43:00.249,0.062,0.047,1.141
06/14/2018 13:43:00.299,0.062,0.047,1.141
06/14/2018 13:43:00.348,0.062,0.047,1.141
06/14/2018 13:43:00.398,0.062,0.047,1.141
06/14/2018 13:43:00.448,0.062,0.047,1.141
06/14/2018 13:43:00.499,0.062,0.047,1.141
06/14/2018 13:43:00.549,0.062,0.047,1.141
06/14/2018 13:43:00.598,0.062,0.047,1.141
06/14/2018 13:43:00.648,0.062,0.047,1.141
06/14/2018 13:43:00.698,0.062,0.047,1.141
06/14/2018 13:43:00.749,0.062,0.047,1.141
06/14/2018 13:43:00.799,0.062,0.047,1.141
06/14/2018 13:43:00.848,0.062,0.047,1.141
06/14/2018 13:43:00.898,0.062,0.047,1.141
06/14/2018 13:43:00.948,0.062,0.047,1.141
06/14/2018 13:43:00.999,0.062,0.047,1.141
06/14/2018 13:43:01.049,0.062,0.047,1.141
06/14/2018 13:43:01.098,0.062,0.047,1.141
06/14/2018 13:43:01.148,0.062,0.047,1.141
06/14/2018 13:43:01.198,0.062,0.047,1.141
06/14/2018 13:43:01.249,0.062,0.047,1.141
06/14/2018 13:43:01.299,0.062,0.047,1.141
06/14/2018 13:43:01.348,0.062,0.047,1.141
06/14/2018 13:43:01.398,0.062,0.047,1.141
06/14/2018 13:43:01.448,0.062,0.047,1.141
06/14/2018 13:43:01.499,0.062,0.047,1.141
06/14/2018 13:43:01.549,0.062,0.047,1.141
06/14/2018 13:43:01.598,0.062,0.047,1.141
06/14/2018 13:43:01.648,0.062,0.047,1.141
06/14/2018 13:43:01.698,0.062,0.047,1.141
06/14/2018 13:43:01.749,0.062,0.047,1.141
06/14/2018 13:43:01.799,0.062,0.047,1.141
06/14/2018 13:43:01.848,0.062,0.047,1.141
06/14/2018 13:43:01.898,0.062,0.047,1.141
06/14/2018 13:43:01.948,0.062,0.047,1.141
06/14/2018 13:43:01.999,0.062,0.047,1.141
06/14/2018 13:43:02.049,0.062,0.047,1.141
06/14/2018 13:43:02.098,0.062,0.047,1.141
06/14/2018 13:43:02.148,0.062,0.047,1.141
06/14/2018 13:43:02.198,0.062,0.047,1.141
06/14/2018 13:43:02.249,0.062,0.047,1.141
06/14/2018 13:43:02.299,0.062,0.047,1.141
06/14/2018 13:43:02.348,0.062,0.047,1.141
06/14/2018 13:43:02.398,0.062,0.047,1.141
06/14/2018 13:43:02.448,0.062,0.047,1.141
06/14/2018 13:43:02.499,0.062,0.047,1.141
06/14/2018 13:43:02.549,0.062,0.047,1.141
06/14/2018 13:43:02.598,0.062,0.047,1.141
06/14/2018 13:43:02.648,0.062,0.047,1.141
06/14/2018 13:43:02.698,0.062,0.047,1.141
06/14/2018 13:43:02.749,0.062,0.047,1.141
06/14/2018 13:43:02.799,0.062,0.047,1.141
06/14/2018 13:43:02.848,0.062,0.047,1.141
06/14/2018 13:43:02.898,0.062,0.047,1.141
06/14/2018 13:43:02.948,0.062,0.047,1.141
06/14/2018 13:43:02.999,0.062,0.047,1.141
06/14/2018 13:43:03.049,0.062,0.047,1.141
06/14/2018 13:43:03.098,0.062,0.047,1.141
06/14/2018 13:43:03.148,0.062,0.047,1.141
06/14/2018 13:43:03.198,0.062,0.047,1.141
06/14/2018 13:43:03.249,0.062,0.047,1.141
06/14/2018 13:43:03.299,0.062,0.047,1.141
06/14/2018 13:43:03.348,0.062,0.047,1.141
06/14/2018 13:43:03.398,0.062,0.047,1.141
06/14/2018 13:43:03.448,0.062,0.047,1.141
06/14/2018 13:43:03.499,0.062,0.047,1.141
06/14/2018 13:43:03.549,0.062,0.047,1.141
06/14/2018 13:43:03.598,0.062,0.047,1.141
06/14/2018 13:43:03.648,0.062,0.047,1.141
06/14/2018 13:43:03.698,0.062,0.047,1.141
06/14/2018 13:43:03.749,0.062,0.047,1.141
06/14/2018 13:43:03.799,0.062,0.047,1.141
06/14/2018 13:43:03.848,0.062,0.047,1.141
06/14/2018 13:43:03.898,0.062,0.047,1.141
06/14/2018 13:43:03.948,0.062,0.047,1.141
06/14/2018 13:43:03.999,0.062,0.047,1.141
06/14/2018 13:43:04.049,0.062,0.047,1.141
06/14/2018 13:43:04.098,0.062,0.047,1.141
06/14/2018 13:43:04.148,0.062,0.047,1.141
06/14/2018 13:43:04.198,0.062,0.047,1.141
06/14/2018 13:43:04.249,0.062,0.047,1.141
06/14/2018 13:43:04.299,0.062,0.047,1.141
06/14/2018 13:43:04.348,0.062,0.047,1.141
06/14/2018 13:43:04.398,0.062,0.047,1.141
06/14/2018 13:43:04.448,0.062,0.047,1.141
06/14/2018 13:43:04.499,0.062,0.047,1.141
06/14/2018 13:43:04.549,0.062,0.047,1.141
06/14/2018 13:43:04.598,0.062,0.047,1.141
06/14/2018 13:43:04.648,0.062,0.047,1.141
06/14/2018 13:43:04.698,0.062,0.047,1.141
06/14/2018 13:43:04.749,0.062,0.047,1.141
06/14/2018 13:43:04.799,0.062,0.047,1.141
06/14/2018 13:43:04.848,0.062,0.047,1.141
06/14/2018 13:43:04.898,0.062,0.047,1.141
06/14/2018 13:43:04.948,0.062,0.047,1.141
06/14/2018 13:43:04.999,0.062,0.047,1.141
06/14/2018 13:43:05.049,0.062,0.047,1.141
06/14/2018 13:43:05.098,0.062,0.047,1.141
06/14/2018 13:43:05.148,0.062,0.047,1.141
06/14/2018 13:43:05.198,0.062,0.047,1.141
06/14/2018 13:43:05.249,0.062,0.047,1.141
06/14/2018 13:43:05.299,0.062,0.047,1.141
06/14/2018 13:43:05.348,0.062,0.047,1.141
06/14/2018 13:43:05.398,0.062,0.047,1.141
06/14/2018 13:43:05.448,0.062,0.047,1.141
06/14/2018 13:43:05.499,0.062,0.047,1.141
06/14/2018 13:43:05.549,0.062,0.047,1.141
06/14/2018 13:43:05.598,0.062,0.047,1.141
06/14/2018 13:43:05.648,0.062,0.047,1.141
06/14/2018 13:43:05.698,0.062,0.047,1.141
06/14/2018 13:43:05.749,0.062,0.047,1.141
06/14/2018 13:43:05.799,0.062,0.047,1.141
06/14/2018 13:43:05.848,0.062,0.047,1.141
06/14/2018 13:43:05.898,0.062,0.047,1.141
06/14/2018 13:43:05.948,0.062,0.047,1.141
06/14/2018 13:43:05.999,0.062,0.047,1.141
06/14/2018 13:43:06.049,0.062,0.047,1.141
06/14/2018 13:43:06.098,0.062,0.047,1.141
06/14/2018 13:43:06.148,0.062,0.047,1.141
06/14/2018 13:43:06.198,0.062,0.047,1.141
06/14/2018 13:43:06.249,0.062,0.047,1.141
06/14/2018 13:43:06.299,0.062,0.047,1.141
06/14/2018 13:43:06.348,0.062,0.047,1.141
06/14/2018 13:43:06.398,0.062,0.047,1.141
06/14/2018 13:43:06.448,0.062,0.047,1.141
06/14/2018 13:43:06.499,0.062,0.047,1.141
06/14/2018 13:43:06.549,0.062,0.047,1.141
06/14/2018 13:43:06.598,0.062,0.047,1.141
06/14/2018 13:43:06.648,0.062,0.047,1.141
06/14/2018 13:43:06.698,0.062,0.047,1.141
06/14/2018 13:43:06.749,0.062,0.047,1.141
06/14/2018 13:43:06.799,0.062,0.047,1.141
06/14/2018 13:43:06.848,0.062,0.047,1.141
06/14/2018 13:43:06.898,0.062,0.047,1.141
06/14/2018 13:43:06.948,0.062,0.047,1.141
06/14/2018 13:43:06.999,0.062,0.047,1.141
06/14/2018 13:43:07.049,0.062,0.047,1.141
06/14/2018 13:43:07.098,0.062,0.047,1.141
06/14/2018 13:43:07.148,0.062,0.047,1.141
06/14/2018 13:43:07.198,0.062,0.047,1.141
06/14/2018 13:43:07.249,0.062,0.047,1.141
06/14/2018 13:43:07.299,0.062,0.047,1.141
06/14/2018 13:43:07.348,0.062,0.047,1.141
06/14/2018 13:43:07.398,0.062,0.047,1.141
06/14/2018 13:43:07.448,0.062,0.047,1.141
06/14/2018 13:43:07.499,0.062,0.047,1.141
06/14/2018 13:43:07.549,0.062,0.047,1.141
06/14/2018 13:43:07.598,0.062,0.047,1.141
06/14/2018 13:43:07.648,0.062,0.047,1.141
06/14/2018 13:43:07.698,0.062,0.047,1.141
06/14/2018 13:43:07.749,0.062,0.047,1.141
06/14/2018 13:43:07.799,0.062,0.047,1.141
06/14/2018 13:43:07.848,0.062,0.047,1.141
06/14/2018 13:43:07.898,0.062,0.047,1.141
06/14/2018 13:43:07.948,0.062,0.047,1.141
06/14/2018 13:43:07.999,0.062,0.047,1.141
06/14/2018 13:43:08.049,0.062,0.047,1.141
06/14/2018 13:43:08.098,0.062,0.047,1.141
06/14/2018 13:43:08.148,0.062,0.047,1.141
06/14/2018 13:43:08.198,0.062,0.047,1.141
06/14/2018 13:43:08.249,0.062,0.047,1.141
06/14/2018 13:43:08.299,0.062,0.047,1.141
06/14/2018 13:43:08.348,0.062,0.047,1.141
06/14/2018 13:43:08.398,0.062,0.047,1.141
06/14/2018 13:43:08.448,0.062,0.047,1.141
06/14/2018 13:43:08.499,0.062,0.047,1.141
06/14/2018 13:43:08.549,0.062,0.047,1.141
06/14/2018 13:43:08.598,0.062,0.047,1.141
06/14/2018 13:43:08.648,0.062,0.047,1.141
06/14/2018 13:43:08.698,0.062,0.047,1.141
06/14/2018 13:43:08.749,0.062,0.047,1.141
06/14/2018 13:43:08.799,0.062,0.047,1.141
06/14/2018 13:43:08.848,0.062,0.047,1.141
06/14/2018 13:43:08.898,0.062,0.047,1.141
06/14/2018 13:43:08.948,0.062,0.047,1.141
06/14/2018 13:43:08.999,0.062,0.047,1.141
06/14/2018 13:43:09.049,0.062,0.047,1.141
06/14/2018 13:43:09.098,0.062,0.047,1.141
06/14/2018 13:43:09.148,0.062,0.047,1.141
06/14/2018 13:43:09.198,0.062,0.047,1.141
06/14/2018 13:43:09.249,0.062,0.047,1.141
06/14/2018 13:43:09.299,0.062,0.047,1.141
06/14/2018 13:43:09.348,0.062,0.047,1.141
06/14/2018 13:43:09.398,0.062,0.047,1.141
06/14/2018 13:43:09.448,0.062,0.047,1.141
06/14/2018 13:43:09.499,0.062,0.047,1.141
06/14/2018 13:43:09.549,0.062,0.047,1.141
06/14/2018 13:43:09.598,0.062,0.047,1.141
06/14/2018 13:43:09.648,0.062,0.047,1.141
06/14/2018 13:43:09.698,0.062,0.047,1.141
06/14/2018 13:43:09.749,0.062,0.047,1.141
06/14/2018 13:43:09.799,0.062,0.047,1.141
06/14/2018 13:43:09.848,0.062,0.047,1.141
06/14/2018 13:43:09.898,0.062,0.047,1.141
06/14/2018 13:43:09.948,0.062,0.047,1.141
06/14/2018 13:43:09.999,0.062,0.047,1.141
06/14/2018 13:43:10.049,0.062,0.047,1.141
06/14/2018 13:43:10.098,0.062,0.047,1.141
06/14/2018 13:43:10.148,0.062,0.047,1.141
06/14/2018 13:43:10.198,0.062,0.047,1.141
06/14/2018 13:43:10.249,0.062,0.047,1.141
06/14/2018 13:43:10.299,0.062,0.047,1.141
06/14/2018 13:43:10.348,0.062,0.047,1.141
06/14/2018 13:43:10.398,0.062,0.047,1.141
06/14/2018 13:43:10.448,0.062,0.047,1.141
06/14/2018 13:43:10.499,0.062,0.047,1.141
06/14/2018 13:43:10.549,0.062,0.047,1.141
06/14/2018 13:43:10.598,0.062,0.047,1.141
06/14/2018 13:43:10.648,0.062,0.047,1.141
06/14/2018 13:43:10.698,0.062,0.047,1.141
06/14/2018 13:43:10.749,0.062,0.047,1.141
06/14/2018 13:43:10.799,0.062,0.047,1.141
06/14/2018 13:43:10.848,0.062,0.047,1.141
06/14/2018 13:43:10.898,0.062,0.047,1.141
06/14/2018 13:43:10.948,0.062,0.047,1.141
06/14/2018 13:43:10.999,0.062,0.047,1.141
06/14/2018 13:43:11.049,0.062,0.047,1.141
06/14/2018 13:43:11.098,0.062,0.047,1.141
06/14/2018 13:43:11.148,0.062,0.047,1.141
06/14/2018 13:43:11.198,0.062,0.047,1.141
06/14/2018 13:43:11.249,0.062,0.047,1.141
06/14/2018 13:43:11.299,0.062,0.047,1.141
06/14/2018 13:43:11.348,0.062,0.047,1.141
06/14/2018 13:43:11.398,0.062,0.047,1.141
06/14/2018 13:43:11.448,0.062,0.047,1.141
06/14/2018 13:43:11.499,0.062,0.047,1.141
06/14/2018 13:43:11.549,0.062,0.047,1.141
06/14/2018 13:43:11.598,0.062,0.047,1.141
06/14/2018 13:43:11.648,0.062,0.047,1.141
06/14/2018 13:43:11.698,0.062,0.047,1.141
06/14/2018 13:43:11.749,0.062,0.047,1.141
06/14/2018 13:43:11.799,0.062,0.047,1.141
06/14/2018 13:43:11.848,0.062,0.047,1.141
06/14/2018 13:43:11.898,0.062,0.047,1.141
06/14/2018 13:43:11.948,0.062,0.047,1.141
06/14/2018 13:43:11.999,0.062,0.047,1.141
06/14/2018 13:43:12.049,0.062,0.047,1.141
06/14/2018 13:43:12.098,0.062,0.047,1.141
06/14/2018 13:43:12.148,0.062,0.047,1.141
06/14/2018 13:43:12.198,0.062,0.047,1.141
06/14/2018 13:43:12.249,0.062,0.047,1.141
06/14/2018 13:43:12.299,0.062,0.047,1.141
06/14/2018 13:43:12.348,0.062,0.047,1.141
06/14/2018 13:43:12.398,0.062,0.047,1.141
06/14/2018 13:43:12.448,0.062,0.047,1.141
06/14/2018 13:43:12.499,0.062,0.047,1.141
06/14/2018 13:43:12.549,0.062,0.047,1.141
06/14/2018 13:43:12.598,0.062,0.047,1.141
06/14/2018 13:43:12.648,0.062,0.047,1.141
06/14/2018 13:43:12.698,0.062,0.047,1.141
06/14/2018 13:43:12.749,0.062,0.047,1.141
06/14/2018 13:43:12.799,0.062,0.047,1.141
06/14/2018 13:43:12.848,0.062,0.047,1.141
06/14/2018 13:43:12.898,0.062,0.047,1.141
06/14/2018 13:43:12.948,0.062,0.047,1.141
06/14/2018 13:43:12.999,0.062,0.047,1.141
06/14/2018 13:43:13.049,0.062,0.047,1.141
06/14/2018 13:43:13.098,0.062,0.047,1.141
06/14/2018 13:43:13.148,0.062,0.047,1.141
06/14/2018 13:43:13.198,0.062,0.047,1.141
06/14/2018 13:43:13.249,0.062,0.047,1.141
06/14/2018 13:43:13.299,0.062,0.047,1.141
06/14/2018 13:43:13.348,0.062,0.047,1.141
06/14/2018 13:43:13.398,0.062,0.047,1.141
06/14/2018 13:43:13.448,0.062,0.047,1.141
06/14/2018 13:43:13.499,0.062,0.047,1.141
06/14/2018 13:43:13.549,0.062,0.047,1.141
06/14/2018 13:43:13.598,0.062,0.047,1.141
06/14/2018 13:43:13.648,0.062,0.047,1.141
06/14/2018 13:43:13.698,0.062,0.047,1.141
06/14/2018 13:43:13.749,0.062,0.047,1.141
06/14/2018 13:43:13.799,0.062,0.047,1.141
06/14/2018 13:43:13.848,0.062,0.047,1.141
06/14/2018 13:43:13.898,0.062,0.047,1.141
06/14/2018 13:43:13.948,0.062,0.047,1.141
06/14/2018 13:43:13.999,0.062,0.047,1.141
06/14/2018 13:43:14.049,0.062,0.047,1.141
06/14/2018 13:43:14.098,0.062,0.047,1.141
06/14/2018 13:43:14.148,0.062,0.047,1.141
06/14/2018 13:43:14.198,0.062,0.047,1.141
06/14/2018 13:43:14.249,0.062,0.047,1.141
06/14/2018 13:43:14.299,0.062,0.047,1.141
06/14/2018 13:43:14.348,0.062,0.047,1.141
06/14/2018 13:43:14.398,0.062,0.047,1.141
06/14/2018 13:43:14.448,0.062,0.047,1.141
06/14/2018 13:43:14.499,0.062,0.047,1.141
06/14/2018 13:43:14.549,0.062,0.047,1.141
06/14/2018 13:43:14.598,0.062,0.047,1.141
06/14/2018 13:43:14.648,0.062,0.047,1.141
06/14/2018 13:43:14.698,0.062,0.047,1.141
06/14/2018 13:43:14.749,0.062,0.047,1.141
06/14/2018 13:43:14.799,0.062,0.047,1.141
06/14/2018 13:43:14.848,0.062,0.047,1.141
06/14/2018 13:43:14.898,0.062,0.047,1.141
06/14/2018 13:43:14.948,0.062,0.047,1.141
06/14/2018 13:43:14.999,0.062,0.047,1.141
06/14/2018 13:43:15.049,0.062,0.047,1.141
06/14/2018 13:43:15.098,0.062,0.047,1.141
06/14/2018 13:43:15.148,0.062,0.047,1.141
06/14/2018 13:43:15.198,0.062,0.047,1.141
06/14/2018 13:43:15.249,0.062,0.047,1.141
06/14/2018 13:43:15.299,0.062,0.047,1.141
06/14/2018 13:43:15.348,0.062,0.047,1.141
06/14/2018 13:43:15.398,0.062,0.047,1.141
06/14/2018 13:43:15.448,0.062,0.047,1.141
06/14/2018 13:43:15.499,0.062,0.047,1.141
06/14/2018 13:43:15.549,0.062,0.047,1.141
06/14/2018 13:43:15.598,0.062,0.047,1.141
06/14/2018 13:43:15.648,0.062,0.047,1.141
06/14/2018 13:43:15.698,0.062,0.047,1.141
06/14/2018 13:43:15.749,0.062,0.047,1.141
06/14/2018 13:43:15.799,0.062,0.047,1.141
06/14/2018 13:43:15.848,0.062,0.047,1.141
06/14/2018 13:43:15.898,0.062,0.047,1.141
06/14/2018 13:43:15.948,0.062,0.047,1.141
06/14/2018 13:43:15.999,0.062,0.047,1.141
06/14/2018 13:43:16.049,0.062,0.047,1.141
06/14/2018 13:43:16.098,0.062,0.047,1.141
06/14/2018 13:43:16.148,0.062,0.047,1.141
06/14/2018 13:43:16.198,0.062,0.047,1.141
06/14/2018 13:43:16.249,0.062,0.047,1.141
06/14/2018 13:43:16.299,0.062,0.047,1.141
06/14/2018 13:43:16.348,0.062,0.047,1.141
06/14/2018 13:43:16.398,0.062,0.047,1.141
06/14/2018 13:43:16.448,0.062,0.047,1.141
06/14/2018 13:43:16.499,0.062,0.047,1.141
06/14/2018 13:43:16.549,0.062,0.047,1.141
06/14/2018 13:43:16.598,0.062,0.047,1.141
06/14/2018 13:43:16.648,0.062,0.047,1.141
06/14/2018 13:43:16.698,0.062,0.047,1.141
06/14/2018 13:43:16.749,0.062,0.047,1.141
06/14/2018 13:43:16.799,0.062,0.047,1.141
06/14/2018 13:43:16.848,0.062,0.047,1.141
06/14/2018 13:43:16.898,0.062,0.047,1.141
06/14/2018 13:43:16.948,0.062,0.047,1.141
06/14/2018 13:43:16.999,0.062,0.047,1.141
06/14/2018 13:43:17.049,0.062,0.047,1.141
06/14/2018 13:43:17.098,0.062,0.047,1.141
06/14/2018 13:43:17.148,0.062,0.047,1.141
06/14/2018 13:43:17.198,0.062,0.047,1.141
06/14/2018 13:43:17.249,0.062,0.047,1.141
06/14/2018 13:43:17.299,0.062,0.047,1.141
06/14/2018 13:43:17.348,0.062,0.047,1.141
06/14/2018 13:43:17.398,0.062,0.047,1.141
06/14/2018 13:43:17.448,0.062,0.047,1.141
06/14/2018 13:43:17.499,0.062,0.047,1.141
06/14/2018 13:43:17.549,0.062,0.047,1.141
06/14/2018 13:43:17.598,0.062,0.047,1.141
06/14/2018 13:43:17.648,0.062,0.047,1.141
06/14/2018 13:43:17.698,0.062,0.047,1.141
06/14/2018 13:43:17.749,0.062,0.047,1.141
06/14/2018 13:43:17.799,0.062,0.047,1.141
06/14/2018 13:43:17.848,0.062,0.047,1.141
06/14/2018 13:43:17.898,0.062,0.047,1.141
06/14/2018 13:43:17.948,0.062,0.047,1.141
06/14/2018 13:43:17.999,0.062,0.047,1.141
06/14/2018 13:43:18.049,0.062,0.047,1.141
06/14/2018 13:43:18.098,0.062,0.047,1.141
06/14/2018 13:43:18.148,0.062,0.047,1.141
06/14/2018 13:43:18.198,0.062,0.047,1.141
06/14/2018 13:43:18.249,0.062,0.047,1.141
06/14/2018 13:43:18.299,0.062,0.047,1.141
06/14/2018 13:43:18.348,0.062,0.047,1.141
06/14/2018 13:43:18.398,0.062,0.047,1.141
06/14/2018 13:43:18.448,0.062,0.047,1.141
06/14/2018 13:43:18.499,0.062,0.047,1.141
06/14/2018 13:43:18.549,0.062,0.047,1.141
06/14/2018 13:43:18.598,0.062,0.047,1.141
06/14/2018 13:43:18.648,0.062,0.047,1.141
06/14/2018 13:43:18.698,0.062,0.047,1.141
06/14/2018 13:43:18.749,0.062,0.047,1.141
06/14/2018 13:43:18.799,0.062,0.047,1.141
06/14/2018 13:43:18.848,0.062,0.047,1.141
06/14/2018 13:43:18.898,0.062,0.047,1.141
06/14/2018 13:43:18.948,0.062,0.047,1.141
06/14/2018 13:43:18.999,0.062,0.047,1.141
06/14/2018 13:43:19.049,0.062,0.047,1.141
06/14/2018 13:43:19.098,0.062,0.047,1.141
06/14/2018 13:43:19.148,0.062,0.047,1.141
06/14/2018 13:43:19.198,0.062,0.047,1.141
06/14/2018 13:43:19.249,0.062,0.047,1.141
06/14/2018 13:43:19.299,0.062,0.047,1.141
06/14/2018 13:43:19.348,0.062,0.047,1.141
06/14/2018 13:43:19.398,0.062,0.047,1.141
06/14/2018 13:43:19.448,0.062,0.047,1.141
06/14/2018 13:43:19.499,0.062,0.047,1.141
06/14/2018 13:43:19.549,0.062,0.047,1.141
06/14/2018 13:43:19.598,0.062,0.047,1.141
06/14/2018 13:43:19.648,0.062,0.047,1.141
06/14/2018 13:43:19.698,0.062,0.047,1.141
06/14/2018 13:43:19.749,0.062,0.047,1.141
06/14/2018 13:43:19.799,0.062,0.047,1.141
06/14/2018 13:43:19.848,0.062,0.047,1.141
06/14/2018 13:43:19.898,0.062,0.047,1.141
06/14/2018 13:43:19.948,0.062,0.047,1.141
06/14/2018 13:43:19.999,0.062,0.047,1.141
06/14/2018 13:43:20.049,0.062,0.047,1.141
06/14/2018 13:43:20.098,0.062,0.047,1.141
06/14/2018 13:43:20.148,0.062,0.047,1.141
06/14/2018 13:43:20.198,0.062,0.047,1.141
06/14/2018 13:43:20.249,0.062,0.047,1.141
06/14/2018 13:43:20.299,0.062,0.047,1.141
06/14/2018 13:43:20.348,0.062,0.047,1.141
06/14/2018 13:43:20.398,0.062,0.047,1.141
06/14/2018 13:43:20.448,0.062,0.047,1.141
06/14/2018 13:43:20.499,0.062,0.047,1.141
06/14/2018 13:43:20.549,0.062,0.047,1.141
06/14/2018 13:43:20.598,0.062,0.047,1.141
06/14/2018 13:43:20.648,0.062,0.047,1.141
06/14/2018 13:43:20.698,0.062,0.047,1.141
06/14/2018 13:43:20.749,0.062,0.047,1.141
06/14/2018 13:43:20.799,0.062,0.047,1.141
06/14/2018 13:43:20.848,0.062,0.047,1.141
06/14/2018 13:43:20.898,0.062,0.047,1.141
06/14/2018 13:43:20.948,0.062,0.047,1.141
06/14/2018 13:43:20.999,0.062,0.047,1.141
06/14/2018 13:43:21.049,0.062,0.047,1.141
06/14/2018 13:43:21.098,0.062,0.047,1.141
06/14/2018 13:43:21.148,0.062,0.047,1.141
06/14/2018 13:43:21.198,0.062,0.047,1.141
06/14/2018 13:43:21.249,0.062,0.047,1.141
06/14/2018 13:43:21.299,0.062,0.047,1.141
06/14/2018 13:43:21.348,0.062,0.047,1.141
06/14/2018 13:43:21.398,0.062,0.047,1.141
06/14/2018 13:43:21.448,0.062,0.047,1.141
06/14/2018 13:43:21.499,0.062,0.047,1.141
06/14/2018 13:43:21.549,0.062,0.047,1.141
06/14/2018 13:43:21.598,0.062,0.047,1.141
06/14/2018 13:43:21.648,0.062,0.047,1.141
06/14/2018 13:43:21.698,0.062,0.047,1.141
06/14/2018 13:43:21.749,0.062,0.047,1.141
06/14/2018 13:43:21.799,0.062,0.047,1.141
06/14/2018 13:43:21.848,0.062,0.047,1.141
06/14/2018 13:43:21.898,0.062,0.047,1.141
06/14/2018 13:43:21.948,0.062,0.047,1.141
06/14/2018 13:43:21.999,0.062,0.047,1.141
06/14/2018 13:43:22.049,0.062,0.047,1.141
06/14/2018 13:43:22.098,0.062,0.047,1.141
06/14/2018 13:43:22.148,0.062,0.047,1.141
06/14/2018 13:43:22.198,0.062,0.047,1.141
06/14/2018 13:43:22.249,0.062,0.047,1.141
06/14/2018 13:43:22.299,0.062,0.047,1.141
06/14/2018 13:43:22.348,0.062,0.047,1.141
06/14/2018 13:43:22.398,0.062,0.047,1.141
06/14/2018 13:43:22.448,0.047,0.047,1.125
06/14/2018 13:43:22.499,0.047,0.047,1.125
06/14/2018 13:43:22.549,0.047,0.047,1.125
06/14/2018 13:43:22.598,0.047,0.047,1.125
06/14/2018 13:43:22.648,0.047,0.047,1.125
06/14/2018 13:43:22.698,0.047,0.047,1.125
06/14/2018 13:43:22.749,0.047,0.047,1.125
06/14/2018 13:43:22.799,0.047,0.047,1.125
06/14/2018 13:43:22.848,0.047,0.047,1.125
06/14/2018 13:43:22.898,0.047,0.047,1.125
06/14/2018 13:43:22.948,0.047,0.047,1.125
06/14/2018 13:43:22.999,0.047,0.047,1.125
06/14/2018 13:43:23.049,0.047,0.047,1.125
06/14/2018 13:43:23.098,0.047,0.047,1.125
06/14/2018 13:43:23.148,0.047,0.047,1.125
06/14/2018 13:43:23.198,0.047,0.047,1.125
06/14/2018 13:43:23.249,0.047,0.047,1.125
06/14/2018 13:43:23.299,0.047,0.047,1.125
06/14/2018 13:43:23.348,0.047,0.047,1.125
06/14/2018 13:43:23.398,0.047,0.047,1.125
06/14/2018 13:43:23.448,0.047,0.047,1.125
06/14/2018 13:43:23.499,0.047,0.047,1.125
06/14/2018 13:43:23.549,0.047,0.047,1.125
06/14/2018 13:43:23.598,0.047,0.047,1.125
06/14/2018 13:43:23.648,0.047,0.047,1.125
06/14/2018 13:43:23.698,0.047,0.047,1.125
06/14/2018 13:43:23.749,0.047,0.047,1.125
06/14/2018 13:43:23.799,0.047,0.047,1.125
06/14/2018 13:43:23.848,0.047,0.047,1.125
06/14/2018 13:43:23.898,0.047,0.047,1.125
06/14/2018 13:43:23.948,0.047,0.047,1.125
06/14/2018 13:43:23.999,0.047,0.047,1.125
06/14/2018 13:43:24.049,0.047,0.047,1.125
06/14/2018 13:43:24.098,0.047,0.047,1.125
06/14/2018 13:43:24.148,0.047,0.047,1.125
06/14/2018 13:43:24.198,0.047,0.047,1.125
06/14/2018 13:43:24.249,0.047,0.047,1.125
06/14/2018 13:43:24.299,0.047,0.047,1.125
06/14/2018 13:43:24.348,0.047,0.047,1.125
06/14/2018 13:43:24.398,0.047,0.047,1.125
06/14/2018 13:43:24.448,0.047,0.047,1.125
06/14/2018 13:43:24.499,0.047,0.047,1.125
06/14/2018 13:43:24.549,0.047,0.047,1.125
06/14/2018 13:43:24.598,0.047,0.047,1.125
06/14/2018 13:43:24.648,0.047,0.047,1.125
06/14/2018 13:43:24.698,0.047,0.047,1.125
06/14/2018 13:43:24.749,0.047,0.047,1.125
06/14/2018 13:43:24.799,0.047,0.047,1.125
06/14/2018 13:43:24.848,0.047,0.047,1.125
06/14/2018 13:43:24.898,0.047,0.047,1.125
06/14/2018 13:43:24.948,0.047,0.047,1.125
06/14/2018 13:43:24.999,0.047,0.047,1.125
06/14/2018 13:43:25.049,0.047,0.047,1.125
06/14/2018 13:43:25.098,0.047,0.047,1.125
06/14/2018 13:43:25.148,0.047,0.047,1.125
06/14/2018 13:43:25.198,0.047,0.047,1.125
06/14/2018 13:43:25.249,0.047,0.047,1.125
06/14/2018 13:43:25.299,0.047,0.047,1.125
06/14/2018 13:43:25.348,0.047,0.047,1.125
06/14/2018 13:43:25.398,0.047,0.047,1.125
06/14/2018 13:43:25.448,0.047,0.047,1.125
06/14/2018 13:43:25.499,0.047,0.047,1.125
06/14/2018 13:43:25.549,0.047,0.047,1.125
06/14/2018 13:43:25.598,0.047,0.047,1.125
06/14/2018 13:43:25.648,0.047,0.047,1.125
06/14/2018 13:43:25.698,0.047,0.047,1.125
06/14/2018 13:43:25.749,0.047,0.047,1.125
06/14/2018 13:43:25.799,0.047,0.047,1.125
06/14/2018 13:43:25.848,0.047,0.047,1.125
06/14/2018 13:43:25.898,0.047,0.047,1.125
06/14/2018 13:43:25.948,0.047,0.047,1.125
06/14/2018 13:43:25.999,0.047,0.047,1.125
06/14/2018 13:43:26.049,0.047,0.047,1.125
06/14/2018 13:43:26.098,0.047,0.047,1.125
06/14/2018 13:43:26.148,0.047,0.047,1.125
06/14/2018 13:43:26.198,0.047,0.047,1.125
06/14/2018 13:43:26.249,0.047,0.047,1.125
06/14/2018 13:43:26.299,0.047,0.047,1.125
06/14/2018 13:43:26.348,0.047,0.047,1.125
06/14/2018 13:43:26.398,0.047,0.047,1.125
06/14/2018 13:43:26.448,0.047,0.047,1.125
06/14/2018 13:43:26.499,0.047,0.047,1.125
06/14/2018 13:43:26.549,0.047,0.047,1.125
06/14/2018 13:43:26.598,0.047,0.047,1.125
06/14/2018 13:43:26.648,0.047,0.047,1.125
06/14/2018 13:43:26.698,0.047,0.047,1.125
06/14/2018 13:43:26.749,0.047,0.047,1.125
06/14/2018 13:43:26.799,0.047,0.047,1.125
06/14/2018 13:43:26.848,0.047,0.047,1.125
06/14/2018 13:43:26.898,0.047,0.047,1.125
06/14/2018 13:43:26.948,0.047,0.047,1.125
06/14/2018 13:43:26.999,0.047,0.047,1.125
06/14/2018 13:43:27.049,0.047,0.047,1.125
06/14/2018 13:43:27.098,0.047,0.047,1.125
06/14/2018 13:43:27.148,0.047,0.047,1.125
06/14/2018 13:43:27.198,0.047,0.047,1.125
06/14/2018 13:43:27.249,0.047,0.047,1.125
06/14/2018 13:43:27.299,0.047,0.047,1.125
06/14/2018 13:43:27.348,0.047,0.047,1.125
06/14/2018 13:43:27.398,0.047,0.047,1.125
06/14/2018 13:43:27.448,0.047,0.047,1.125
06/14/2018 13:43:27.499,0.047,0.047,1.125
06/14/2018 13:43:27.549,0.047,0.047,1.125
06/14/2018 13:43:27.598,0.047,0.047,1.125
06/14/2018 13:43:27.648,0.047,0.047,1.125
06/14/2018 13:43:27.698,0.047,0.047,1.125
06/14/2018 13:43:27.749,0.047,0.047,1.125
06/14/2018 13:43:27.799,0.047,0.047,1.125
06/14/2018 13:43:27.848,0.047,0.047,1.125
06/14/2018 13:43:27.898,0.047,0.047,1.125
06/14/2018 13:43:27.948,0.047,0.047,1.125
06/14/2018 13:43:27.999,0.047,0.047,1.125
06/14/2018 13:43:28.049,0.047,0.047,1.125
06/14/2018 13:43:28.098,0.047,0.047,1.125
06/14/2018 13:43:28.148,0.047,0.047,1.125
06/14/2018 13:43:28.198,0.047,0.047,1.125
06/14/2018 13:43:28.249,0.047,0.047,1.125
06/14/2018 13:43:28.299,0.047,0.047,1.125
06/14/2018 13:43:28.348,0.047,0.047,1.125
06/14/2018 13:43:28.398,0.047,0.047,1.125
06/14/2018 13:43:28.448,0.047,0.047,1.125
06/14/2018 13:43:28.499,0.047,0.047,1.125
06/14/2018 13:43:28.549,0.047,0.047,1.125
06/14/2018 13:43:28.598,0.047,0.047,1.125
06/14/2018 13:43:28.648,0.047,0.047,1.125
06/14/2018 13:43:28.698,0.047,0.047,1.125
06/14/2018 13:43:28.749,0.047,0.047,1.125
06/14/2018 13:43:28.799,0.047,0.047,1.125
06/14/2018 13:43:28.848,0.047,0.047,1.125
06/14/2018 13:43:28.898,0.047,0.047,1.125
06/14/2018 13:43:28.948,0.047,0.047,1.125
06/14/2018 13:43:28.999,0.047,0.047,1.125
06/14/2018 13:43:29.049,0.047,0.047,1.125
06/14/2018 13:43:29.098,0.047,0.047,1.125
06/14/2018 13:43:29.148,0.047,0.047,1.125
06/14/2018 13:43:29.198,0.047,0.047,1.125
06/14/2018 13:43:29.249,0.047,0.047,1.125
06/14/2018 13:43:29.299,0.047,0.047,1.125
06/14/2018 13:43:29.348,0.047,0.047,1.125
06/14/2018 13:43:29.398,0.047,0.047,1.125
06/14/2018 13:43:29.448,0.047,0.047,1.125
06/14/2018 13:43:29.499,0.047,0.047,1.125
06/14/2018 13:43:29.549,0.047,0.047,1.125
06/14/2018 13:43:29.598,0.047,0.047,1.125
06/14/2018 13:43:29.648,0.047,0.047,1.125
06/14/2018 13:43:29.698,0.047,0.047,1.125
06/14/2018 13:43:29.749,0.047,0.047,1.125
06/14/2018 13:43:29.799,0.047,0.047,1.125
06/14/2018 13:43:29.848,0.047,0.047,1.125
06/14/2018 13:43:29.898,0.047,0.047,1.125
06/14/2018 13:43:29.948,0.047,0.047,1.125
06/14/2018 13:43:29.999,0.047,0.047,1.125
06/14/2018 13:43:30.049,0.047,0.047,1.125
06/14/2018 13:43:30.098,0.047,0.047,1.125
06/14/2018 13:43:30.148,0.047,0.047,1.125
06/14/2018 13:43:30.198,0.047,0.047,1.125
06/14/2018 13:43:30.249,0.047,0.047,1.125
06/14/2018 13:43:30.299,0.047,0.047,1.125
06/14/2018 13:43:30.348,0.047,0.047,1.125
06/14/2018 13:43:30.398,0.047,0.047,1.125
06/14/2018 13:43:30.448,0.047,0.047,1.125
06/14/2018 13:43:30.499,0.047,0.047,1.125
06/14/2018 13:43:30.549,0.047,0.047,1.125
06/14/2018 13:43:30.598,0.047,0.047,1.125
06/14/2018 13:43:30.648,0.047,0.047,1.125
06/14/2018 13:43:30.698,0.047,0.047,1.125
06/14/2018 13:43:30.749,0.047,0.047,1.125
06/14/2018 13:43:30.799,0.047,0.047,1.125
06/14/2018 13:43:30.848,0.047,0.047,1.125
06/14/2018 13:43:30.898,0.047,0.047,1.125
06/14/2018 13:43:30.948,0.047,0.047,1.125
06/14/2018 13:43:30.999,0.047,0.047,1.125
06/14/2018 13:43:31.049,0.047,0.047,1.125
06/14/2018 13:43:31.098,0.047,0.047,1.125
06/14/2018 13:43:31.148,0.047,0.047,1.125
06/14/2018 13:43:31.198,0.047,0.047,1.125
06/14/2018 13:43:31.249,0.047,0.047,1.125
06/14/2018 13:43:31.299,0.047,0.047,1.125
06/14/2018 13:43:31.348,0.047,0.047,1.125
06/14/2018 13:43:31.398,0.047,0.047,1.125
06/14/2018 13:43:31.448,0.047,0.047,1.125
06/14/2018 13:43:31.499,0.047,0.047,1.125
06/14/2018 13:43:31.549,0.047,0.047,1.125
06/14/2018 13:43:31.598,0.047,0.047,1.125
06/14/2018 13:43:31.648,0.047,0.047,1.125
06/14/2018 13:43:31.698,0.047,0.047,1.125
06/14/2018 13:43:31.749,0.047,0.047,1.125
06/14/2018 13:43:31.799,0.047,0.047,1.125
06/14/2018 13:43:31.848,0.047,0.047,1.125
06/14/2018 13:43:31.898,0.047,0.047,1.125
06/14/2018 13:43:31.948,0.047,0.047,1.125
06/14/2018 13:43:31.999,0.047,0.047,1.125
06/14/2018 13:43:32.049,0.047,0.047,1.125
06/14/2018 13:43:32.098,0.047,0.047,1.125
06/14/2018 13:43:32.148,0.047,0.047,1.125
06/14/2018 13:43:32.198,0.047,0.047,1.125
06/14/2018 13:43:32.249,0.047,0.047,1.125
06/14/2018 13:43:32.299,0.047,0.047,1.125
06/14/2018 13:43:32.348,0.047,0.047,1.125
06/14/2018 13:43:32.398,0.047,0.047,1.125
06/14/2018 13:43:32.448,0.047,0.047,1.125
06/14/2018 13:43:32.499,0.047,0.047,1.125
06/14/2018 13:43:32.549,0.047,0.047,1.125
06/14/2018 13:43:32.598,0.047,0.047,1.125
06/14/2018 13:43:32.648,0.047,0.047,1.125
06/14/2018 13:43:32.698,0.047,0.047,1.125
06/14/2018 13:43:32.749,0.047,0.047,1.125
06/14/2018 13:43:32.799,0.047,0.047,1.125
06/14/2018 13:43:32.848,0.047,0.047,1.125
06/14/2018 13:43:32.898,0.047,0.047,1.125
06/14/2018 13:43:32.948,0.047,0.047,1.125
06/14/2018 13:43:32.999,0.047,0.047,1.125
06/14/2018 13:43:33.049,0.047,0.047,1.125
06/14/2018 13:43:33.098,0.047,0.047,1.125
06/14/2018 13:43:33.148,0.047,0.047,1.125
06/14/2018 13:43:33.198,0.047,0.047,1.125
06/14/2018 13:43:33.249,0.047,0.047,1.125
06/14/2018 13:43:33.299,0.047,0.047,1.125
06/14/2018 13:43:33.348,0.047,0.047,1.125
06/14/2018 13:43:33.398,0.047,0.047,1.125
06/14/2018 13:43:33.448,0.047,0.047,1.125
06/14/2018 13:43:33.499,0.047,0.047,1.125
06/14/2018 13:43:33.549,0.047,0.047,1.125
06/14/2018 13:43:33.598,0.047,0.047,1.125
06/14/2018 13:43:33.648,0.047,0.047,1.125
06/14/2018 13:43:33.698,0.047,0.047,1.125
06/14/2018 13:43:33.749,0.047,0.047,1.125
06/14/2018 13:43:33.799,0.047,0.047,1.125
06/14/2018 13:43:33.848,0.047,0.047,1.125
06/14/2018 13:43:33.898,0.047,0.047,1.125
06/14/2018 13:43:33.948,0.047,0.047,1.125
06/14/2018 13:43:33.999,0.047,0.047,1.125
06/14/2018 13:43:34.049,0.047,0.047,1.125
06/14/2018 13:43:34.098,0.047,0.047,1.125
06/14/2018 13:43:34.148,0.047,0.047,1.125
06/14/2018 13:43:34.198,0.047,0.047,1.125
06/14/2018 13:43:34.249,0.047,0.047,1.125
06/14/2018 13:43:34.299,0.047,0.047,1.125
06/14/2018 13:43:34.348,0.047,0.047,1.125
06/14/2018 13:43:34.398,0.047,0.047,1.125
06/14/2018 13:43:34.448,0.047,0.047,1.125
06/14/2018 13:43:34.499,0.047,0.047,1.125
06/14/2018 13:43:34.549,0.047,0.047,1.125
06/14/2018 13:43:34.598,0.047,0.047,1.125
06/14/2018 13:43:34.648,0.047,0.047,1.125
06/14/2018 13:43:34.698,0.047,0.047,1.125
06/14/2018 13:43:34.749,0.047,0.047,1.125
06/14/2018 13:43:34.799,0.047,0.047,1.125
06/14/2018 13:43:34.848,0.047,0.047,1.125
06/14/2018 13:43:34.898,0.047,0.047,1.125
06/14/2018 13:43:34.948,0.047,0.047,1.125
06/14/2018 13:43:34.999,0.047,0.047,1.125
06/14/2018 13:43:35.049,0.047,0.047,1.125
06/14/2018 13:43:35.098,0.047,0.047,1.125
06/14/2018 13:43:35.148,0.047,0.047,1.125
06/14/2018 13:43:35.198,0.047,0.047,1.125
06/14/2018 13:43:35.249,0.047,0.047,1.125
06/14/2018 13:43:35.299,0.047,0.047,1.125
06/14/2018 13:43:35.348,0.047,0.047,1.125
06/14/2018 13:43:35.398,0.047,0.047,1.125
06/14/2018 13:43:35.448,0.047,0.047,1.125
06/14/2018 13:43:35.499,0.047,0.047,1.125
06/14/2018 13:43:35.549,0.047,0.047,1.125
06/14/2018 13:43:35.598,0.047,0.047,1.125
06/14/2018 13:43:35.648,0.047,0.047,1.125
06/14/2018 13:43:35.698,0.047,0.047,1.125
06/14/2018 13:43:35.749,0.047,0.047,1.125
06/14/2018 13:43:35.799,0.047,0.047,1.125
06/14/2018 13:43:35.848,0.047,0.047,1.125
06/14/2018 13:43:35.898,0.047,0.047,1.125
06/14/2018 13:43:35.948,0.047,0.047,1.125
06/14/2018 13:43:35.999,0.047,0.047,1.125
06/14/2018 13:43:36.049,0.047,0.047,1.125
06/14/2018 13:43:36.098,0.047,0.047,1.125
06/14/2018 13:43:36.148,0.047,0.047,1.125
06/14/2018 13:43:36.198,0.047,0.047,1.125
06/14/2018 13:43:36.249,0.047,0.047,1.125
06/14/2018 13:43:36.299,0.047,0.047,1.125
06/14/2018 13:43:36.348,0.047,0.047,1.125
06/14/2018 13:43:36.398,0.047,0.047,1.125
06/14/2018 13:43:36.448,0.047,0.047,1.125
06/14/2018 13:43:36.499,0.047,0.047,1.125
06/14/2018 13:43:36.549,0.047,0.047,1.125
06/14/2018 13:43:36.598,0.047,0.047,1.125
06/14/2018 13:43:36.648,0.047,0.047,1.125
06/14/2018 13:43:36.698,0.047,0.047,1.125
06/14/2018 13:43:36.749,0.047,0.047,1.125
06/14/2018 13:43:36.799,0.047,0.047,1.125
06/14/2018 13:43:36.848,0.047,0.047,1.125
06/14/2018 13:43:36.898,0.047,0.047,1.125
06/14/2018 13:43:36.948,0.047,0.047,1.125
06/14/2018 13:43:36.999,0.047,0.047,1.125
06/14/2018 13:43:37.049,0.047,0.047,1.125
06/14/2018 13:43:37.098,0.047,0.047,1.125
06/14/2018 13:43:37.148,0.047,0.047,1.125
06/14/2018 13:43:37.198,0.047,0.047,1.125
06/14/2018 13:43:37.249,0.047,0.047,1.125
06/14/2018 13:43:37.299,0.047,0.047,1.125
06/14/2018 13:43:37.348,0.047,0.047,1.125
06/14/2018 13:43:37.398,0.047,0.047,1.125
06/14/2018 13:43:37.448,0.047,0.047,1.125
06/14/2018 13:43:37.499,0.047,0.047,1.125
06/14/2018 13:43:37.549,0.047,0.047,1.125
06/14/2018 13:43:37.598,0.047,0.047,1.125
06/14/2018 13:43:37.648,0.047,0.047,1.125
06/14/2018 13:43:37.698,0.047,0.047,1.125
06/14/2018 13:43:37.749,0.047,0.047,1.125
06/14/2018 13:43:37.799,0.047,0.047,1.125
06/14/2018 13:43:37.848,0.047,0.047,1.125
06/14/2018 13:43:37.898,0.047,0.047,1.125
06/14/2018 13:43:37.948,0.047,0.047,1.125
06/14/2018 13:43:37.999,0.047,0.047,1.125
06/14/2018 13:43:38.049,0.047,0.047,1.125
06/14/2018 13:43:38.098,0.047,0.047,1.125
06/14/2018 13:43:38.148,0.047,0.047,1.125
06/14/2018 13:43:38.198,0.047,0.047,1.125
06/14/2018 13:43:38.249,0.047,0.047,1.125
06/14/2018 13:43:38.299,0.047,0.047,1.125
06/14/2018 13:43:38.348,0.047,0.047,1.125
06/14/2018 13:43:38.398,0.047,0.047,1.125
06/14/2018 13:43:38.448,0.047,0.047,1.125
06/14/2018 13:43:38.499,0.047,0.047,1.125
06/14/2018 13:43:38.549,0.047,0.047,1.125
06/14/2018 13:43:38.598,0.047,0.047,1.125
06/14/2018 13:43:38.648,0.047,0.047,1.125
06/14/2018 13:43:38.698,0.047,0.047,1.125
06/14/2018 13:43:38.749,0.047,0.047,1.125
06/14/2018 13:43:38.799,0.047,0.047,1.125
06/14/2018 13:43:38.848,0.047,0.047,1.125
06/14/2018 13:43:38.898,0.047,0.047,1.125
06/14/2018 13:43:38.948,0.047,0.047,1.125
06/14/2018 13:43:38.999,0.047,0.047,1.125
06/14/2018 13:43:39.049,0.047,0.047,1.125
06/14/2018 13:43:39.098,0.047,0.047,1.125
06/14/2018 13:43:39.148,0.047,0.047,1.125
06/14/2018 13:43:39.198,0.047,0.047,1.125
06/14/2018 13:43:39.249,0.047,0.047,1.125
06/14/2018 13:43:39.299,0.047,0.047,1.125
06/14/2018 13:43:39.348,0.047,0.047,1.125
06/14/2018 13:43:39.398,0.047,0.047,1.125
06/14/2018 13:43:39.448,0.047,0.047,1.125
06/14/2018 13:43:39.499,0.047,0.047,1.125
06/14/2018 13:43:39.549,0.047,0.047,1.125
06/14/2018 13:43:39.598,0.047,0.047,1.125
06/14/2018 13:43:39.648,0.047,0.047,1.125
06/14/2018 13:43:39.698,0.047,0.047,1.125
06/14/2018 13:43:39.749,0.047,0.047,1.125
06/14/2018 13:43:39.799,0.047,0.047,1.125
06/14/2018 13:43:39.848,0.047,0.047,1.125
06/14/2018 13:43:39.898,0.047,0.047,1.125
06/14/2018 13:43:39.948,0.047,0.047,1.125
06/14/2018 13:43:39.999,0.047,0.047,1.125
06/14/2018 13:43:40.049,0.047,0.047,1.125
06/14/2018 13:43:40.098,0.047,0.047,1.125
06/14/2018 13:43:40.148,0.047,0.047,1.125
06/14/2018 13:43:40.198,0.047,0.047,1.125
06/14/2018 13:43:40.249,0.047,0.047,1.125
06/14/2018 13:43:40.299,0.047,0.047,1.125
06/14/2018 13:43:40.348,0.047,0.047,1.125
06/14/2018 13:43:40.398,0.047,0.047,1.125
06/14/2018 13:43:40.448,0.047,0.047,1.125
06/14/2018 13:43:40.499,0.047,0.047,1.125
06/14/2018 13:43:40.549,0.047,0.047,1.125
06/14/2018 13:43:40.598,0.047,0.047,1.125
06/14/2018 13:43:40.648,0.047,0.047,1.125
06/14/2018 13:43:40.698,0.047,0.047,1.125
06/14/2018 13:43:40.749,0.047,0.047,1.125
06/14/2018 13:43:40.799,0.047,0.047,1.125
06/14/2018 13:43:40.848,0.047,0.047,1.125
06/14/2018 13:43:40.898,0.047,0.047,1.125
06/14/2018 13:43:40.948,0.047,0.047,1.125
06/14/2018 13:43:40.999,0.047,0.047,1.125
06/14/2018 13:43:41.049,0.047,0.047,1.125
06/14/2018 13:43:41.098,0.047,0.047,1.125
06/14/2018 13:43:41.148,0.047,0.047,1.125
06/14/2018 13:43:41.198,0.047,0.047,1.125
06/14/2018 13:43:41.249,0.047,0.047,1.125
06/14/2018 13:43:41.299,0.047,0.047,1.125
06/14/2018 13:43:41.348,0.047,0.047,1.125
06/14/2018 13:43:41.398,0.047,0.047,1.125
06/14/2018 13:43:41.448,0.047,0.047,1.125
06/14/2018 13:43:41.499,0.047,0.047,1.125
06/14/2018 13:43:41.549,0.047,0.047,1.125
06/14/2018 13:43:41.598,0.047,0.047,1.125
06/14/2018 13:43:41.648,0.047,0.047,1.125
06/14/2018 13:43:41.698,0.047,0.047,1.125
06/14/2018 13:43:41.749,0.047,0.047,1.125
06/14/2018 13:43:41.799,0.047,0.047,1.125
06/14/2018 13:43:41.848,0.047,0.047,1.125
06/14/2018 13:43:41.898,0.047,0.047,1.125
06/14/2018 13:43:41.948,0.047,0.047,1.125
06/14/2018 13:43:41.999,0.047,0.047,1.125
06/14/2018 13:43:42.049,0.047,0.047,1.125
06/14/2018 13:43:42.098,0.047,0.047,1.125
06/14/2018 13:43:42.148,0.047,0.047,1.125
06/14/2018 13:43:42.198,0.047,0.047,1.125
06/14/2018 13:43:42.249,0.047,0.047,1.125
06/14/2018 13:43:42.299,0.047,0.047,1.125
06/14/2018 13:43:42.348,0.047,0.047,1.125
06/14/2018 13:43:42.398,0.047,0.047,1.125
06/14/2018 13:43:42.448,0.047,0.047,1.125
06/14/2018 13:43:42.499,0.047,0.047,1.125
06/14/2018 13:43:42.549,0.047,0.047,1.125
06/14/2018 13:43:42.598,0.047,0.047,1.125
06/14/2018 13:43:42.648,0.047,0.047,1.125
06/14/2018 13:43:42.698,0.047,0.047,1.125
06/14/2018 13:43:42.749,0.047,0.047,1.125
06/14/2018 13:43:42.799,0.047,0.047,1.125
06/14/2018 13:43:42.848,0.047,0.047,1.125
06/14/2018 13:43:42.898,0.047,0.047,1.125
06/14/2018 13:43:42.948,0.047,0.047,1.125
06/14/2018 13:43:42.999,0.047,0.047,1.125
06/14/2018 13:43:43.049,0.047,0.047,1.125
06/14/2018 13:43:43.098,0.047,0.047,1.125
06/14/2018 13:43:43.148,0.047,0.047,1.125
06/14/2018 13:43:43.198,0.047,0.047,1.125
06/14/2018 13:43:43.249,0.047,0.047,1.125
06/14/2018 13:43:43.299,0.047,0.047,1.125
06/14/2018 13:43:43.348,0.047,0.047,1.125
06/14/2018 13:43:43.398,0.047,0.047,1.125
06/14/2018 13:43:43.448,0.047,0.047,1.125
06/14/2018 13:43:43.499,0.047,0.047,1.125
06/14/2018 13:43:43.549,0.047,0.047,1.125
06/14/2018 13:43:43.598,0.047,0.047,1.125
06/14/2018 13:43:43.648,0.047,0.047,1.125
06/14/2018 13:43:43.698,0.047,0.047,1.125
06/14/2018 13:43:43.749,0.047,0.047,1.125
06/14/2018 13:43:43.799,0.047,0.047,1.125
06/14/2018 13:43:43.848,0.047,0.047,1.125
06/14/2018 13:43:43.898,0.047,0.047,1.125
06/14/2018 13:43:43.948,0.047,0.047,1.125
06/14/2018 13:43:43.999,0.047,0.047,1.125
06/14/2018 13:43:44.049,0.047,0.047,1.125
06/14/2018 13:43:44.098,0.047,0.047,1.125
06/14/2018 13:43:44.148,0.047,0.047,1.125
06/14/2018 13:43:44.198,0.047,0.047,1.125
06/14/2018 13:43:44.249,0.047,0.047,1.125
06/14/2018 13:43:44.299,0.047,0.047,1.125
06/14/2018 13:43:44.348,0.047,0.047,1.125
06/14/2018 13:43:44.398,0.047,0.047,1.125
06/14/2018 13:43:44.448,0.047,0.047,1.125
06/14/2018 13:43:44.499,0.047,0.047,1.125
06/14/2018 13:43:44.549,0.047,0.047,1.125
06/14/2018 13:43:44.598,0.047,0.047,1.125
06/14/2018 13:43:44.648,0.047,0.047,1.125
06/14/2018 13:43:44.698,0.047,0.047,1.125
06/14/2018 13:43:44.749,0.047,0.047,1.125
06/14/2018 13:43:44.799,0.047,0.047,1.125
06/14/2018 13:43:44.848,0.047,0.047,1.125
06/14/2018 13:43:44.898,0.047,0.047,1.125
06/14/2018 13:43:44.948,0.047,0.047,1.125
06/14/2018 13:43:44.999,0.047,0.047,1.125
06/14/2018 13:43:45.049,0.047,0.047,1.125
06/14/2018 13:43:45.098,0.047,0.047,1.125
06/14/2018 13:43:45.148,0.047,0.047,1.125
06/14/2018 13:43:45.198,0.047,0.047,1.125
06/14/2018 13:43:45.249,0.047,0.047,1.125
06/14/2018 13:43:45.299,0.047,0.047,1.125
06/14/2018 13:43:45.348,0.047,0.047,1.125
06/14/2018 13:43:45.398,0.047,0.047,1.125
06/14/2018 13:43:45.448,0.047,0.047,1.125
06/14/2018 13:43:45.499,0.047,0.047,1.125
06/14/2018 13:43:45.549,0.047,0.047,1.125
06/14/2018 13:43:45.598,0.047,0.047,1.125
06/14/2018 13:43:45.648,0.047,0.047,1.125
06/14/2018 13:43:45.698,0.047,0.047,1.125
06/14/2018 13:43:45.749,0.047,0.047,1.125
06/14/2018 13:43:45.799,0.047,0.047,1.125
06/14/2018 13:43:45.848,0.047,0.047,1.125
06/14/2018 13:43:45.898,0.047,0.047,1.125
06/14/2018 13:43:45.948,0.047,0.047,1.125
06/14/2018 13:43:45.999,0.047,0.047,1.125
06/14/2018 13:43:46.049,0.047,0.047,1.125
06/14/2018 13:43:46.098,0.047,0.047,1.125
06/14/2018 13:43:46.148,0.047,0.047,1.125
06/14/2018 13:43:46.198,0.047,0.047,1.125
06/14/2018 13:43:46.249,0.047,0.047,1.125
06/14/2018 13:43:46.299,0.047,0.047,1.125
06/14/2018 13:43:46.348,0.047,0.047,1.125
06/14/2018 13:43:46.398,0.047,0.047,1.125
06/14/2018 13:43:46.448,0.047,0.047,1.125
06/14/2018 13:43:46.499,0.047,0.047,1.125
06/14/2018 13:43:46.549,0.047,0.047,1.125
06/14/2018 13:43:46.598,0.047,0.047,1.125
06/14/2018 13:43:46.648,0.047,0.047,1.125
06/14/2018 13:43:46.698,0.047,0.047,1.125
06/14/2018 13:43:46.749,0.047,0.047,1.125
06/14/2018 13:43:46.799,0.047,0.047,1.125
06/14/2018 13:43:46.848,0.047,0.047,1.125
06/14/2018 13:43:46.898,0.047,0.047,1.125
06/14/2018 13:43:46.948,0.047,0.047,1.125
06/14/2018 13:43:46.999,0.047,0.047,1.125
06/14/2018 13:43:47.049,0.047,0.047,1.125
06/14/2018 13:43:47.098,0.047,0.047,1.125
06/14/2018 13:43:47.148,0.047,0.047,1.125
06/14/2018 13:43:47.198,0.047,0.047,1.125
06/14/2018 13:43:47.249,0.047,0.047,1.125
06/14/2018 13:43:47.299,0.047,0.047,1.125
06/14/2018 13:43:47.348,0.047,0.047,1.125
06/14/2018 13:43:47.398,0.047,0.047,1.125
06/14/2018 13:43:47.448,0.047,0.047,1.125
06/14/2018 13:43:47.499,0.047,0.047,1.125
06/14/2018 13:43:47.549,0.047,0.047,1.125
06/14/2018 13:43:47.598,0.047,0.047,1.125
06/14/2018 13:43:47.648,0.047,0.047,1.125
06/14/2018 13:43:47.698,0.047,0.047,1.125
06/14/2018 13:43:47.749,0.047,0.047,1.125
06/14/2018 13:43:47.799,0.047,0.047,1.125
06/14/2018 13:43:47.848,0.062,0.047,1.125
06/14/2018 13:43:47.898,0.062,0.047,1.125
06/14/2018 13:43:47.948,0.062,0.047,1.125
06/14/2018 13:43:47.999,0.062,0.047,1.125
06/14/2018 13:43:48.049,0.062,0.047,1.125
06/14/2018 13:43:48.098,0.062,0.047,1.125
06/14/2018 13:43:48.148,0.062,0.047,1.125
06/14/2018 13:43:48.198,0.062,0.047,1.125
06/14/2018 13:43:48.249,0.062,0.047,1.125
06/14/2018 13:43:48.299,0.062,0.047,1.125
06/14/2018 13:43:48.348,0.062,0.047,1.125
06/14/2018 13:43:48.398,0.062,0.047,1.125
06/14/2018 13:43:48.448,0.062,0.047,1.125
06/14/2018 13:43:48.499,0.062,0.047,1.125
06/14/2018 13:43:48.549,0.062,0.047,1.125
06/14/2018 13:43:48.598,0.062,0.047,1.125
06/14/2018 13:43:48.648,0.062,0.047,1.125
06/14/2018 13:43:48.698,0.062,0.047,1.125
06/14/2018 13:43:48.749,0.062,0.047,1.125
06/14/2018 13:43:48.799,0.062,0.047,1.125
06/14/2018 13:43:48.848,0.062,0.047,1.125
06/14/2018 13:43:48.898,0.062,0.047,1.125
06/14/2018 13:43:48.948,0.062,0.047,1.125
06/14/2018 13:43:48.999,0.062,0.047,1.125
06/14/2018 13:43:49.049,0.062,0.047,1.125
06/14/2018 13:43:49.098,0.062,0.047,1.125
06/14/2018 13:43:49.148,0.062,0.047,1.125
06/14/2018 13:43:49.198,0.062,0.047,1.125
06/14/2018 13:43:49.249,0.062,0.047,1.125
06/14/2018 13:43:49.299,0.062,0.047,1.125
06/14/2018 13:43:49.348,0.062,0.047,1.125
06/14/2018 13:43:49.398,0.062,0.047,1.125
06/14/2018 13:43:49.448,0.062,0.047,1.125
06/14/2018 13:43:49.499,0.062,0.047,1.125
06/14/2018 13:43:49.549,0.062,0.047,1.125
06/14/2018 13:43:49.598,0.062,0.047,1.125
06/14/2018 13:43:49.648,0.062,0.047,1.125
06/14/2018 13:43:49.698,0.062,0.047,1.125
06/14/2018 13:43:49.749,0.062,0.047,1.125
06/14/2018 13:43:49.799,0.062,0.047,1.125
06/14/2018 13:43:49.848,0.062,0.047,1.125
06/14/2018 13:43:49.898,0.062,0.047,1.125
06/14/2018 13:43:49.948,0.062,0.047,1.125
06/14/2018 13:43:49.999,0.062,0.047,1.125
06/14/2018 13:43:50.049,0.062,0.047,1.125
06/14/2018 13:43:50.098,0.062,0.047,1.125
06/14/2018 13:43:50.148,0.062,0.047,1.125
06/14/2018 13:43:50.198,0.062,0.047,1.125
06/14/2018 13:43:50.249,0.062,0.047,1.125
06/14/2018 13:43:50.299,0.062,0.047,1.125
06/14/2018 13:43:50.348,0.062,0.047,1.125
06/14/2018 13:43:50.398,0.062,0.047,1.125
06/14/2018 13:43:50.448,0.062,0.047,1.125
06/14/2018 13:43:50.499,0.062,0.047,1.125
06/14/2018 13:43:50.549,0.062,0.047,1.125
06/14/2018 13:43:50.598,0.062,0.047,1.125
06/14/2018 13:43:50.648,0.062,0.047,1.125
06/14/2018 13:43:50.698,0.062,0.047,1.125
06/14/2018 13:43:50.749,0.062,0.047,1.125
06/14/2018 13:43:50.799,0.062,0.047,1.125
06/14/2018 13:43:50.848,0.062,0.047,1.125
06/14/2018 13:43:50.898,0.062,0.047,1.125
06/14/2018 13:43:50.948,0.062,0.047,1.125
06/14/2018 13:43:50.999,0.062,0.047,1.125
06/14/2018 13:43:51.049,0.062,0.047,1.125
06/14/2018 13:43:51.098,0.062,0.047,1.125
06/14/2018 13:43:51.148,0.062,0.047,1.125
06/14/2018 13:43:51.198,0.062,0.047,1.125
06/14/2018 13:43:51.249,0.062,0.047,1.125
06/14/2018 13:43:51.299,0.062,0.047,1.125
06/14/2018 13:43:51.348,0.062,0.047,1.125
06/14/2018 13:43:51.398,0.062,0.047,1.125
06/14/2018 13:43:51.448,0.062,0.047,1.125
06/14/2018 13:43:51.499,0.062,0.047,1.125
06/14/2018 13:43:51.549,0.062,0.047,1.125
06/14/2018 13:43:51.598,0.062,0.047,1.125
06/14/2018 13:43:51.648,0.062,0.047,1.125
06/14/2018 13:43:51.698,0.062,0.047,1.125
06/14/2018 13:43:51.749,0.062,0.047,1.125
06/14/2018 13:43:51.799,0.062,0.047,1.125
06/14/2018 13:43:51.848,0.062,0.047,1.125
06/14/2018 13:43:51.898,0.062,0.047,1.125
06/14/2018 13:43:51.948,0.062,0.047,1.125
06/14/2018 13:43:51.999,0.062,0.047,1.125
06/14/2018 13:43:52.049,0.062,0.047,1.125
06/14/2018 13:43:52.098,0.062,0.047,1.125
06/14/2018 13:43:52.148,0.062,0.047,1.125
06/14/2018 13:43:52.198,0.062,0.047,1.125
06/14/2018 13:43:52.249,0.062,0.047,1.125
06/14/2018 13:43:52.299,0.062,0.047,1.125
06/14/2018 13:43:52.348,0.062,0.047,1.125
06/14/2018 13:43:52.398,0.062,0.047,1.125
06/14/2018 13:43:52.448,0.062,0.047,1.125
06/14/2018 13:43:52.499,0.062,0.047,1.125
06/14/2018 13:43:52.549,0.062,0.047,1.125
06/14/2018 13:43:52.598,0.062,0.047,1.125
06/14/2018 13:43:52.648,0.062,0.047,1.125
06/14/2018 13:43:52.698,0.062,0.047,1.125
06/14/2018 13:43:52.749,0.062,0.047,1.125
06/14/2018 13:43:52.799,0.062,0.047,1.125
06/14/2018 13:43:52.848,0.062,0.047,1.125
06/14/2018 13:43:52.898,0.062,0.047,1.125
06/14/2018 13:43:52.948,0.062,0.047,1.125
06/14/2018 13:43:52.999,0.062,0.047,1.125
06/14/2018 13:43:53.049,0.062,0.047,1.125
06/14/2018 13:43:53.098,0.062,0.047,1.125
06/14/2018 13:43:53.148,0.062,0.047,1.125
06/14/2018 13:43:53.198,0.062,0.047,1.125
06/14/2018 13:43:53.249,0.062,0.047,1.125
06/14/2018 13:43:53.299,0.062,0.047,1.125
06/14/2018 13:43:53.348,0.062,0.047,1.125
06/14/2018 13:43:53.398,0.062,0.047,1.125
06/14/2018 13:43:53.448,0.062,0.047,1.125
06/14/2018 13:43:53.499,0.062,0.047,1.125
06/14/2018 13:43:53.549,0.062,0.047,1.125
06/14/2018 13:43:53.598,0.062,0.047,1.125
06/14/2018 13:43:53.648,0.062,0.047,1.125
06/14/2018 13:43:53.698,0.062,0.047,1.125
06/14/2018 13:43:53.749,0.062,0.047,1.125
06/14/2018 13:43:53.799,0.062,0.047,1.125
06/14/2018 13:43:53.848,0.062,0.047,1.125
06/14/2018 13:43:53.898,0.062,0.047,1.125
06/14/2018 13:43:53.948,0.062,0.047,1.125
06/14/2018 13:43:53.999,0.062,0.047,1.125
06/14/2018 13:43:54.049,0.062,0.047,1.125
06/14/2018 13:43:54.098,0.062,0.047,1.125
06/14/2018 13:43:54.148,0.062,0.047,1.125
06/14/2018 13:43:54.198,0.062,0.047,1.125
06/14/2018 13:43:54.249,0.062,0.047,1.125
06/14/2018 13:43:54.299,0.062,0.047,1.125
06/14/2018 13:43:54.348,0.062,0.047,1.125
06/14/2018 13:43:54.398,0.062,0.047,1.125
06/14/2018 13:43:54.448,0.062,0.047,1.125
06/14/2018 13:43:54.499,0.062,0.047,1.125
06/14/2018 13:43:54.549,0.062,0.047,1.125
06/14/2018 13:43:54.598,0.062,0.047,1.125
06/14/2018 13:43:54.648,0.062,0.047,1.125
06/14/2018 13:43:54.698,0.062,0.047,1.125
06/14/2018 13:43:54.749,0.062,0.047,1.125
06/14/2018 13:43:54.799,0.062,0.047,1.125
06/14/2018 13:43:54.848,0.062,0.047,1.125
06/14/2018 13:43:54.898,0.062,0.047,1.125
06/14/2018 13:43:54.948,0.062,0.047,1.125
06/14/2018 13:43:54.999,0.062,0.047,1.125
06/14/2018 13:43:55.049,0.062,0.047,1.125
06/14/2018 13:43:55.098,0.062,0.047,1.125
06/14/2018 13:43:55.148,0.062,0.047,1.125
06/14/2018 13:43:55.198,0.062,0.047,1.125
06/14/2018 13:43:55.249,0.062,0.047,1.125
06/14/2018 13:43:55.299,0.062,0.047,1.125
06/14/2018 13:43:55.348,0.062,0.047,1.125
06/14/2018 13:43:55.398,0.062,0.047,1.125
06/14/2018 13:43:55.448,0.062,0.047,1.125
06/14/2018 13:43:55.499,0.062,0.047,1.125
06/14/2018 13:43:55.549,0.062,0.047,1.125
06/14/2018 13:43:55.598,0.062,0.047,1.125
06/14/2018 13:43:55.648,0.062,0.047,1.125
06/14/2018 13:43:55.698,0.062,0.047,1.125
06/14/2018 13:43:55.749,0.062,0.047,1.125
06/14/2018 13:43:55.799,0.266,-0.156,1.141
06/14/2018 13:43:55.848,0.078,0.078,1.141
06/14/2018 13:43:55.898,0.016,0,1.141
06/14/2018 13:43:55.948,0.141,0.062,1.156
06/14/2018 13:43:55.999,0.016,0.016,1.109
06/14/2018 13:43:56.049,0.062,-0.062,1.141
06/14/2018 13:43:56.098,0.094,-0.094,1.25
06/14/2018 13:43:56.148,0.125,-0.328,1.328
06/14/2018 13:43:56.198,0.125,-1.047,0.438
06/14/2018 13:43:56.249,-0.172,-1.219,0.531
06/14/2018 13:43:56.299,-0.531,-1.203,0.391
06/14/2018 13:43:56.348,-0.281,-0.812,0.5
06/14/2018 13:43:56.398,-0.609,-0.688,0.391
06/14/2018 13:43:56.448,-0.594,-0.844,0.484
06/14/2018 13:43:56.499,-0.453,-0.625,0.422
06/14/2018 13:43:56.549,-0.359,-0.5,0.156
06/14/2018 13:43:56.598,-0.484,-0.562,0.094
06/14/2018 13:43:56.648,-0.547,-0.672,-0.016
06/14/2018 13:43:56.698,-0.547,-0.594,0.141
06/14/2018 13:43:56.749,-0.609,-0.641,0.156
06/14/2018 13:43:56.799,-0.688,-0.672,0.219
06/14/2018 13:43:56.848,-0.703,-0.656,0.219
06/14/2018 13:43:56.898,-0.875,-0.672,0.312
06/14/2018 13:43:56.948,-0.859,-0.641,0.453
06/14/2018 13:43:56.999,-0.938,-0.453,0.547
06/14/2018 13:43:57.049,-0.953,-0.391,0.672
06/14/2018 13:43:57.098,-0.75,-0.203,0.719
06/14/2018 13:43:57.148,-0.891,-0.172,0.797
06/14/2018 13:43:57.198,-0.703,-0.078,0.781
06/14/2018 13:43:57.249,-0.703,-0.266,0.562
06/14/2018 13:43:57.299,-0.922,-0.234,0.828
06/14/2018 13:43:57.348,-0.609,-0.234,0.672
06/14/2018 13:43:57.398,-0.625,-0.234,0.75
06/14/2018 13:43:57.448,-0.547,-0.25,0.875
06/14/2018 13:43:57.499,-0.609,-0.234,0.938
06/14/2018 13:43:57.549,-0.516,-0.109,0.828
06/14/2018 13:43:57.598,-0.359,-0.156,0.859
06/14/2018 13:43:57.648,-0.375,-0.031,0.922
06/14/2018 13:43:57.698,-0.344,-0.016,0.797
06/14/2018 13:43:57.749,-0.469,-0.062,0.922
06/14/2018 13:43:57.799,-0.594,-0.281,1.016
06/14/2018 13:43:57.848,-0.75,-0.344,0.781
06/14/2018 13:43:57.898,-0.891,-0.406,0.75
06/14/2018 13:43:57.948,-0.859,-0.453,-0.062
06/14/2018 13:43:57.999,-0.875,-0.359,-0.172
06/14/2018 13:43:58.049,-0.875,-0.375,-0.172
06/14/2018 13:43:58.098,-0.891,-0.234,-0.141
06/14/2018 13:43:58.148,-0.875,-0.266,-0.281
06/14/2018 13:43:58.198,-0.781,-0.344,-0.328
06/14/2018 13:43:58.249,-1.328,-0.188,-0.328
06/14/2018 13:43:58.299,-1.016,-0.016,-0.062
06/14/2018 13:43:58.348,-0.766,-0.141,-0.234
06/14/2018 13:43:58.398,-0.406,-0.453,-0.641
06/14/2018 13:43:58.448,-0.297,-0.297,-0.703
06/14/2018 13:43:58.499,-0.656,-0.234,-0.656
06/14/2018 13:43:58.549,-0.703,-0.125,-0.484
06/14/2018 13:43:58.598,-0.672,-0.641,-1.906
06/14/2018 13:43:58.648,-1.156,0.312,0.203
06/14/2018 13:43:58.698,-1.141,0.422,-0.266
06/14/2018 13:43:58.749,-0.953,0.312,-0.125
06/14/2018 13:43:58.799,-0.953,0.516,-0.281
06/14/2018 13:43:58.848,-1.281,0.391,-0.188
06/14/2018 13:43:58.898,-1.297,0.391,-0.203
06/14/2018 13:43:58.948,-1.109,0.438,-0.281
06/14/2018 13:43:58.999,-0.984,0.359,-0.234
06/14/2018 13:43:59.049,-0.672,0.328,-0.297
06/14/2018 13:43:59.098,-0.469,0.422,-0.406
06/14/2018 13:43:59.148,-0.281,0.469,-0.438
06/14/2018 13:43:59.198,-0.094,0.484,-0.703
06/14/2018 13:43:59.249,-0.172,0.406,-0.797
06/14/2018 13:43:59.299,-0.125,0.297,-0.859
06/14/2018 13:43:59.348,-0.375,0.234,-0.922
06/14/2018 13:43:59.398,-0.469,0,-0.984
06/14/2018 13:43:59.448,-0.625,-0.25,-1.016
06/14/2018 13:43:59.499,-0.594,-0.078,-1.016
06/14/2018 13:43:59.549,-0.609,-0.109,-1.062
06/14/2018 13:43:59.598,-0.359,-0.031,-0.969
06/14/2018 13:43:59.648,-0.281,-0.016,-0.969
06/14/2018 13:43:59.698,-0.438,0.062,-0.938
06/14/2018 13:43:59.749,-0.562,0.25,-0.875
06/14/2018 13:43:59.799,-0.547,0.203,-0.828
06/14/2018 13:43:59.848,-0.859,0.359,-0.469
06/14/2018 13:43:59.898,-0.688,0.203,-0.516
06/14/2018 13:43:59.948,-0.641,0.047,-0.391
06/14/2018 13:43:59.999,-0.797,-0.234,-0.562
06/14/2018 13:44:00.049,-0.703,-0.484,-0.297
06/14/2018 13:44:00.098,-0.609,-0.328,0.844
06/14/2018 13:44:00.148,-0.609,-0.281,0.812
06/14/2018 13:44:00.198,-0.594,-0.281,0.984
06/14/2018 13:44:00.249,-0.547,-0.219,1.047
06/14/2018 13:44:00.299,-0.562,-0.156,1.016
06/14/2018 13:44:00.348,-0.547,-0.078,0.984
06/14/2018 13:44:00.398,-0.578,-0.031,0.938
06/14/2018 13:44:00.448,-0.531,0.109,0.984
06/14/2018 13:44:00.499,-0.516,0.141,1.016
06/14/2018 13:44:00.549,-0.516,0.234,1.078
06/14/2018 13:44:00.598,-0.469,0.297,1.094
06/14/2018 13:44:00.648,-0.453,0.328,1
06/14/2018 13:44:00.698,-0.453,0.375,1.016
06/14/2018 13:44:00.749,-0.375,0.406,1
06/14/2018 13:44:00.799,-0.234,0.406,1.078
06/14/2018 13:44:00.848,-0.172,0.578,0.844
06/14/2018 13:44:00.898,-0.281,0.422,1.172
06/14/2018 13:44:00.948,-0.203,0.297,0.984
06/14/2018 13:44:00.999,-0.141,0.156,0.922
